milli,accel_x,accel_y,accel_x,gyro_x,gyro_y,gyro_z
3906953,-3.88235497,0.22851455,9.18484974,-0.04764749,0.16554448,0.06169739,-1.24232387,-10.82285976,56.52587318
3959570,-3.85124826,0.27577284,9.21954632,0.01954769,0.01466077,0.01343904,-0.83308887,-11.42209911,56.74510383
4012570,-3.90448833,0.25842488,9.18245697,0.01832596,0.02015855,0.00000000,-1.18386364,-11.24671173,56.65741157
4065570,-3.91465783,0.23988047,9.22612572,0.00366519,0.02260201,0.00000000,-1.37386608,-11.71441174,56.37971687
4118570,-3.87158680,0.26081768,9.21715260,0.00000000,0.02199115,0.00183260,-0.59923839,-11.07132435,56.21894264
4171570,-3.88833666,0.26620153,9.25125027,0.00305433,0.01771509,0.00122173,-0.96462917,-11.05670929,56.17509651
4224570,-3.89551520,0.28235304,9.20997429,0.00488692,0.02138028,0.00000000,-1.21309566,-11.30517435,56.45279121
4277570,-3.86979246,0.29491538,9.20578671,0.00305433,0.01832596,-0.00061087,-0.95001507,-10.66208744,56.30664253
4330570,-3.87577438,0.29910284,9.23270607,0.00366519,0.01893682,0.00000000,-1.24232387,-11.18824959,56.49663734
4383570,-3.86859584,0.28953156,9.24706268,0.00061087,0.02015855,-0.00122173,-0.40923595,-10.96901512,56.52587318
4436570,-3.86440849,0.27457643,9.25005341,-0.00244346,0.01954769,-0.00183260,-0.49693012,-11.10055590,56.61355781
4489570,-3.89072967,0.26321048,9.24048328,0.00244346,0.01893682,-0.00122173,-1.03770733,-11.02747774,56.84741402
4542570,-3.90747929,0.22253250,9.24347401,-0.00122173,0.01954769,-0.00122173,-0.97924328,-11.17363358,56.62818336
4595570,-3.89192605,0.28055847,9.22253704,0.00427606,0.02199115,0.00000000,-1.27155971,-11.07132435,56.62818336
4648570,-3.87996197,0.29910284,9.25783062,0.00366519,0.02076942,-0.00061087,-0.92078113,-10.85209036,57.51973152
4701570,-3.87876558,0.30747771,9.24586678,0.00122173,0.01954769,-0.00122173,-1.05232143,-10.76439714,56.33587074
4754570,-3.89132762,0.26321048,9.23868847,0.00061087,0.01832596,-0.00122173,-0.96462917,-11.27594376,56.75971412
4807570,-3.89850640,0.23509482,9.20937634,0.00183260,0.02015855,0.00000000,-0.84770298,-10.92516851,56.75971412
4860570,-3.89072967,0.25483561,9.22911739,0.00488692,0.01832596,0.00000000,-1.37386608,-10.72055006,56.58432960
4913570,-3.87936354,0.31405798,9.24646473,0.00427606,0.01954769,0.00000000,-1.14001751,-10.92516851,56.49663734
4966570,-3.88235497,0.28893334,9.26261616,0.00000000,0.01954769,-0.00061087,-1.71002483,-11.29055882,57.00818825
5019570,-3.87816739,0.26799616,9.25842857,0.00000000,0.02015855,-0.00061087,-0.71616459,-11.26132774,56.17509651
5072570,-3.88534594,0.25782663,9.21894741,0.00305433,0.01893682,-0.00122173,-1.16924572,-10.88132191,55.86816597
5125570,-3.89072967,0.28534412,9.23330498,0.00183260,0.01954769,-0.00183260,-0.76001072,-10.82285976,56.70125770
5178570,-3.87517619,0.28354946,9.25783062,-0.00183260,0.02138028,-0.00122173,-0.81847286,-11.15901852,57.70973396
5231570,-3.86799788,0.27756745,9.24168015,0.00000000,0.01893682,-0.00061087,-1.05232143,-10.70593452,56.75971412
5284570,-3.86500692,0.31645080,9.19741249,0.09040806,0.00122173,0.00122173,-1.15463161,-11.12978697,56.07278633
5337570,-3.79082942,0.17946172,9.24407196,0.07574729,-0.00305433,0.01038471,-0.96462917,-10.63285637,56.67202949
5390570,-4.02472734,0.61136615,9.01795006,0.09651671,0.01160644,0.00000000,-0.80385875,-10.34054422,56.39432716
5443570,-3.83509660,0.37268215,9.02333355,0.14049901,0.00549779,0.00305433,-1.22770977,-10.45746899,56.07278633
5496570,-3.83390021,0.57906312,9.35055256,0.08613200,0.04948008,0.00122173,-1.28617382,-9.97515392,56.97895241
5549570,-4.09172678,0.50847483,8.97428131,0.14599679,0.01221730,-0.00794125,-1.37386608,-9.94592285,57.87050056
5602570,-3.86261392,0.57068825,9.30688381,0.12278391,0.00427606,0.00122173,-2.29465008,-9.50745440,57.22741890
5655570,-3.81715035,0.59102720,9.25364399,0.05436701,0.02871067,-0.00244346,-2.30926418,-9.41976118,57.02279854
5708570,-4.05344152,0.57487565,8.85164928,0.14538592,-0.02138028,-0.02138028,-2.63080883,-9.37591410,58.06051063
5761570,-3.90269351,0.46002015,9.04068279,0.07635815,-0.00549779,-0.03359759,-2.32388210,-9.68284178,57.95820045
5814570,-3.26440835,1.02652097,9.09452057,-0.31887165,0.04459316,0.02199115,-2.77696514,-10.16515684,57.84127235
5867570,-4.31246424,0.59102720,10.13539982,-0.25350907,0.11545353,0.12095132,-3.30312633,-11.08594036,57.63665962
5920570,-5.31864643,1.22153604,9.82373333,-0.10079277,0.05681047,0.07513642,-1.15463161,-11.55363989,56.33587074
5973570,-4.63788891,0.62632138,11.21635628,-0.01588250,-0.13683382,-0.05436701,0.80386067,-12.29903555,51.49809837
6026570,-4.39681149,1.03070843,10.42313576,-0.33475414,-0.42149702,0.01893682,3.39082241,-14.05290890,45.00876808
6079570,-3.72801781,0.73160559,11.05723381,-0.03481932,-0.95966929,0.05986479,3.56621075,-16.36217594,38.22712898
6132570,-3.11126781,0.16031910,10.29512024,-0.04337143,-1.13254416,-0.00733038,1.34463597,-17.94066048,35.09938621
6185570,-1.40697968,1.63669062,10.75513935,0.56810468,-1.80144155,-0.30604348,-0.89155102,-17.96989250,34.79245949
6238570,-0.54556352,2.23370004,9.25723362,1.34207094,-2.61511397,0.14355333,-0.13153934,-16.44986916,35.80093574
6291570,0.89671034,0.91106719,10.05882835,1.89673662,-2.92848802,0.45326200,2.00234127,-13.62905693,38.44635963
6344570,2.26660132,2.50289249,8.46161938,1.45324838,-2.41780472,1.45324838,4.26775837,-10.70593452,40.74101066
6397570,2.17567396,1.87238383,7.74855804,1.42087257,-1.61024070,1.34512520,5.75854969,-7.47588468,42.29026604
6450570,3.61914444,2.73619294,8.49870777,1.34817958,-1.33596230,1.69148588,6.88395405,-4.81584385,44.40952873
6503570,5.53519678,2.43230414,8.79182911,1.12154853,-2.03295946,1.79716551,9.66091824,-2.37503696,45.08185005
6556570,5.40478802,3.73579454,6.79621458,0.29504791,-0.97371918,1.59435833,12.62788677,-0.08038616,45.40339470
6609570,6.55334330,2.35334110,7.74018288,0.49907690,-1.49417639,1.57664323,14.84945965,0.02192259,45.71032142
6662570,6.15254545,3.01196551,4.68155766,0.32314771,-1.01770151,0.86193085,17.80181408,0.46039152,45.35954475
6715570,7.35194778,2.06201482,6.67118979,-0.25411993,-0.78679442,1.33718395,19.93569279,-0.16807985,44.92107963
6768570,6.89731169,1.36869454,5.78763962,-0.24678954,-0.99021250,1.07145762,22.56650257,-1.52733183,43.78105736
6821570,7.27238607,0.52283174,4.39860630,-0.49907690,-1.05068827,1.40498996,24.71499634,-4.04121652,43.89798164
6874570,7.86042309,-0.95054883,6.00000286,-0.84482658,-0.77824229,0.62858033,26.95118523,-7.47588468,42.10026741
6927570,7.20359278,-1.60737848,4.58584452,-0.58765233,-1.15087008,0.90652400,29.17275775,-10.03361654,39.73253822
6980570,7.48116016,-1.53738856,2.88574409,-1.10688782,-0.41050142,0.48808134,30.59047178,-13.48289967,38.63636589
7033570,7.88554668,-2.44905400,4.64506674,-1.11727250,0.15271631,0.38362336,30.15200347,-16.63987160,38.57790184
7086570,7.19761086,-2.24805689,1.96570373,-1.28403866,0.60658920,0.56321776,29.21660459,-18.71528816,38.03712272
7139570,8.05902672,-3.23689079,4.90109921,-2.87656450,1.66827297,0.98654735,25.86962986,-25.46770096,36.26863670
7192570,7.21854782,-4.30289364,4.30947351,-2.16979313,1.23761296,0.61391956,22.61034870,-30.55393410,33.03858757
7245570,7.59661436,-4.38245440,5.10508728,-2.04639864,1.45508099,0.78251839,18.40105343,-35.20169449,31.02163124
7298570,6.12263536,-6.27816868,4.41176653,-2.22232771,1.25532806,0.82344633,14.68868923,-38.97252464,26.88541221
7351570,6.18066120,-6.18006229,4.68574524,-1.54671085,1.33962739,0.79290307,11.70710469,-41.69102669,24.83922767
7404570,5.42632341,-6.53300428,3.91884518,-1.38666403,1.28281701,1.02869701,7.57088566,-43.59105492,21.90149116
7457570,5.23011208,-7.28375244,4.68634319,-1.21623266,1.44530714,1.09222710,3.37620640,-45.59339333,18.84683037
7510570,4.21555519,-7.66181850,3.76211548,-1.40010309,1.05190992,1.06718147,-0.40923595,-46.42648506,15.77755165
7563570,3.41695070,-8.64407253,3.66221523,-1.20584798,1.26388013,1.20890236,-3.65390300,-47.14264870,11.56825638
7616570,3.02093863,-8.17029285,3.32602334,-1.54060221,1.26510191,1.41170955,-7.36626720,-47.23034096,7.19818878
7669570,2.02552438,-9.21416187,2.73140693,-1.06595981,1.28281701,1.46363306,-11.64863872,-46.19263268,3.61736393
7722570,0.97387880,-9.31705379,3.18006134,-1.12948990,1.46302223,1.57786489,-15.94562816,-44.61414909,-1.26424885
7775570,0.01914258,-9.77288532,2.67457771,-0.64934975,0.76480329,1.50272846,-20.22799968,-42.91873741,-4.36275816
7828570,-0.79262257,-9.54257679,2.39521551,-0.28466320,-0.21197022,1.44836140,-24.65653133,-40.96024513,-5.76585698
7881570,-1.12941217,-9.45284557,2.97726989,1.06779253,-1.63650799,1.28342783,-28.31043148,-38.75329018,-2.25811100
7934570,-2.19960237,-9.21296597,2.33539486,0.86865038,-1.72813773,0.98410386,-29.96200084,-37.37942314,2.09734154
7987570,-1.01694965,-8.94975471,5.24327230,1.60291040,-2.48316717,0.69455379,-31.16047573,-35.01169395,8.73282814
8040570,-2.59142709,-9.34875774,5.02432919,2.05861568,-3.25102472,0.38117990,-29.45044994,-32.80473518,18.97836876
8093570,-1.04506528,-7.93400192,5.89531708,2.42513490,-2.42513490,0.03420845,-27.52118969,-30.55393410,27.52850151
8146570,-1.20598257,-7.47936535,5.58245564,2.18201041,-1.71958554,-0.22785273,-22.87342739,-26.97310829,33.91552162
8199570,0.41754755,-6.95114994,8.13140965,2.42635679,-1.78006124,-0.15210544,-19.84799862,-22.64688683,39.58638191
8252570,0.19740789,-6.36191702,8.14995384,2.54914069,-1.66888380,-0.00244346,-16.35486507,-17.22449589,44.20491218
8305570,1.25324082,-4.77069044,8.34795952,2.46484137,-1.13254416,-0.47280970,-12.87634945,-11.56825495,47.97574043
8358570,2.28215456,-3.10050011,9.12861824,1.84664559,-0.46853364,-0.46181411,-10.66939068,-6.81818247,50.35808372
8411570,2.52024055,-2.77328134,8.67817020,1.95354700,-0.54550260,-0.44654247,-9.31014156,-1.98041558,51.01578712
8464570,3.04546475,-1.63549423,10.17966557,1.84481299,-0.48563784,-0.56138515,-8.08243084,2.74042606,51.41040993
8517570,3.13938332,-0.83090770,8.82831955,1.30419731,-0.36346480,-0.34819317,-6.54778957,6.36509705,51.43963814
8570570,3.75254416,-0.03828516,9.55513954,1.26754546,-0.05436701,-0.52412236,-6.57702541,9.30283451,51.80502891
8623570,3.81475759,0.87876409,8.57886696,1.66949463,-0.05375614,-0.63652152,-6.89856624,13.26366615,51.68810081
8676570,3.11126781,1.12343013,10.03430176,1.60657561,0.08491027,-1.46852005,-7.81935024,17.95527458,50.06577110
8729570,2.55015063,2.90428853,8.74636555,1.17835903,-0.12095132,-1.61573851,-8.81321239,20.24992561,48.51651573
8782570,2.89651179,3.75732970,8.81037331,0.92546082,-0.00488692,-1.02136672,-10.11400127,22.60303879,48.29728126
8835570,2.67936301,3.61196589,8.81276703,0.22785273,0.45753807,-1.44591796,-11.89710521,23.17304993,46.66033745
8888570,1.85264289,3.86560488,8.79661465,-0.22296581,0.56260687,-1.71164441,-15.33177089,21.94533730,46.11955452
8941570,2.39282274,2.56271315,6.29850721,-3.02744794,0.96150190,-2.30540538,-18.88336467,15.79216576,47.04033851
8994570,-0.90448701,2.39461708,11.17029381,-3.20398808,1.33962739,-2.44529343,-23.72113323,3.73428726,45.65185737
9047570,-0.55573308,1.11625183,10.29093266,-2.89000344,0.59437191,-1.45569193,-25.16807461,-5.23969650,44.26337242
9100570,-1.72881448,-0.54017967,10.38784218,-3.62426353,1.25166285,-1.36345112,-25.95732021,-15.10523319,39.77638054
9153570,-1.50329077,-1.68275261,9.94157982,-2.20155835,0.75258595,-0.53939396,-25.82578563,-20.93686104,35.47939491
9206570,-1.96211457,-4.17188644,8.47836876,-2.63099647,0.89491755,-0.35979962,-27.63811779,-26.15463448,30.36392784
9259570,-1.93280244,-4.45962286,9.55394268,-2.86617970,0.64751714,0.19914205,-28.04735470,-30.70008659,23.85998344
9312570,-2.62552476,-5.39581537,6.83150864,-1.74340940,0.78435093,-0.06414085,-28.57351589,-33.34551430,19.56299591
9365570,-2.31385946,-7.01695251,7.58225679,-1.75012887,-0.01649336,-0.08979719,-29.26044750,-35.69862747,15.64601135
9418570,-2.19661140,-7.40040207,5.93061113,-1.30175376,-0.27061331,0.02504547,-28.86582851,-37.32095909,13.26366615
9471570,-2.56630230,-7.79402161,6.91465902,-1.60779727,-0.03481932,0.14599679,-29.26044750,-37.99328041,9.91669082
9524570,-1.48474658,-8.32283497,5.92223644,-1.66460776,-0.36713001,-0.24801129,-28.14966106,-39.45483971,7.25665092
9577570,-0.75852478,-9.52941608,3.99481750,-2.21866250,-1.19668496,-1.07145762,-25.91347408,-42.31949806,3.23735809
9630570,-1.64506555,-10.65823078,5.43529701,-3.07937169,-0.78618354,-1.43247902,-22.87342739,-44.02952385,-2.05349207
9683570,0.76809609,-9.63589668,1.23290181,-2.07572007,-0.52167886,-1.06290555,-19.78953075,-45.91493797,-5.76585698
9736570,0.51026946,-10.76112080,1.99501586,-1.73546815,-0.75258595,-1.10810947,-17.11487865,-46.73341179,-10.22361779
9789570,1.53080821,-9.75673485,0.07178468,-2.29929662,-0.26022857,-1.03724909,-14.82022762,-46.76264000,-14.49137545
9842570,1.67138672,-7.73180819,-1.98604286,-2.48499966,0.37751472,-1.84725642,-11.42940426,-46.58725548,-19.41683579
9895570,1.51106751,-8.48554802,-1.66899383,-2.24859500,1.08978355,-1.56503677,-5.46623897,-45.06723213,-26.00847626
9948570,2.01236367,-8.27557755,-2.12901402,-1.13193321,-0.20036380,-0.96638882,-2.87927532,-43.73721123,-29.63314629
10001570,4.13898468,-7.61396170,-3.98524642,-1.85092163,0.13561207,-1.43919849,0.19000531,-41.03332329,-33.41859055
10054570,4.31545544,-7.42851734,-3.81715035,-2.04456592,-0.00671952,-1.94866002,4.28237629,-37.65711784,-37.78865624
10107570,4.83768940,-6.35952425,-4.14855623,-0.98837996,-0.90713489,-2.18201041,7.00087834,-34.77784348,-40.43408394
10160570,4.71206570,-4.76171684,-5.27378130,-0.05253441,-1.87413454,-1.70859003,8.44782353,-33.66705704,-42.02718544
10213570,4.88195658,-5.53998280,-5.84446955,0.66889745,-2.05495071,-1.30847335,6.21163464,-33.53551483,-41.77871895
10266570,4.38125849,-5.39581537,-6.17707109,0.46609017,-1.80877197,-1.30786240,4.96930790,-34.42707062,-41.13563347
10319570,3.69571471,-5.27079010,-6.11067104,0.74953163,-2.07144403,-1.00853848,2.67465687,-35.27477264,-39.96638298
10372570,3.13041043,-5.55254555,-5.68355227,1.61451685,-2.47461510,-1.20218277,0.36539173,-38.02250862,-37.26249695
10425570,2.46640205,-6.52103996,-6.24885654,3.30355906,-2.56502318,-1.15636790,-1.44694423,-43.26951027,-30.48085213
10478570,2.20797706,-7.57148933,-7.74496889,3.82584882,-2.77882600,-1.30725157,-1.95849132,-48.45805550,-21.33148098
10531570,1.75752819,-8.36710262,-5.38265419,3.11235833,-2.08671546,-1.19668496,-1.02309322,-51.24963570,-13.04443050
10584570,2.79302216,-9.58804035,-3.39122772,3.42756486,-2.07633090,-1.36528385,2.30926800,-52.44811440,-2.68196345
10637570,1.89691019,-8.98684406,-3.03768826,3.34937406,-1.88574100,-1.39399445,6.67933560,-52.02426338,6.40894604
10690570,2.72721958,-10.41236687,-1.25922287,3.32310700,-1.95354700,-1.42270505,10.88863087,-49.80269051,15.13446426
10743570,2.92702031,-9.02034378,-0.69391859,2.53325796,-1.83870435,-1.33474052,16.63256455,-46.26571083,20.77609062
10796570,4.18026114,-8.70149994,0.17647067,2.47217155,-1.71042264,-1.49539804,21.95264721,-42.20257378,25.52616310
10849570,4.78863621,-8.45264530,0.73040915,2.07266569,-1.69759452,-1.78128314,27.75504351,-36.97018623,28.08389473
10902570,5.03150797,-7.68395185,1.08813608,1.89918005,-1.44103110,-1.70431399,33.58667159,-31.82549095,30.27623558
10955570,6.51146841,-7.34357262,1.15573335,2.02623987,-1.46668732,-1.66216433,38.02981663,-25.42385292,30.45162391
11008570,6.74955463,-5.98444986,0.92183489,1.52838480,-1.09039438,-1.83870435,41.81525994,-19.43145371,29.50160789
11061570,7.59781027,-5.11166763,1.71385920,1.64994705,-1.21745443,-1.81976759,44.85530663,-12.53288555,28.61005592
11114570,8.25105095,-4.71505690,1.43868458,1.39155102,-1.22844994,-1.93949711,47.07687855,-5.67816484,27.16311073
11167570,8.10269547,-2.54177594,1.32921302,1.63895142,-1.38177705,-2.04700947,48.47997761,2.02426147,24.09383201
11220570,9.62094116,-1.90648150,0.52043891,1.40682268,-1.59557998,-1.84603477,49.88307667,8.55743980,19.54837799
11273570,8.59382248,-1.71744835,0.05563312,1.03419483,-1.40865529,-2.04762030,49.57614804,14.22829628,14.33060646
11326570,10.07797050,-0.64008009,-0.21176480,0.91202182,-1.36467302,-2.64932251,48.20228100,21.17070961,9.93130874
11379570,8.52443027,1.37048924,-1.67976153,0.23212878,-1.20890236,-3.05982399,44.63607216,28.75621223,6.04355621
11432570,8.29412174,3.80518627,-1.80957222,-0.62186080,-1.04274690,-2.77699351,39.37445259,35.53785515,4.28968239
11485570,8.14457035,4.90767908,-2.93599343,-0.94561940,-1.11055303,-2.39947844,34.41976142,40.71177864,3.79275226
11538570,6.89970446,6.83031178,-2.51904392,-1.44469631,-0.96883225,-1.90956473,30.37123764,43.79567146,5.28354359
11591570,6.89671278,5.33838701,-2.61954260,-1.44286370,-0.38484508,-1.96698606,26.33732939,46.11955833,8.38205337
11644570,6.08494806,9.14297581,-2.04227400,-2.85090804,-0.21074851,-1.19851756,21.95264721,47.08418465,13.57059479
11697570,6.07776976,8.18644524,-0.80877405,-3.03172421,0.68966687,-0.99204516,19.73107338,45.92955589,21.78456688
11750570,5.39282370,7.11625433,1.21794665,-3.16733623,1.19301975,-0.65912360,17.08564854,43.21105003,29.45776176
11803570,4.89511681,8.64706230,3.37627268,-4.25711966,1.20523703,-0.55771995,13.62174893,38.30020332,37.24788093
11856570,4.82512712,5.84267426,4.79820728,-4.38051462,1.39827049,0.28221974,11.66325856,28.84390449,45.22800636
11909570,4.16351128,4.49850655,6.12203646,-3.75376678,1.64383841,-0.08735373,8.21397305,20.24992561,49.67115211
11962570,3.23569465,4.07019138,7.41475916,-5.33468580,1.80755019,0.29749137,4.20929814,6.54048443,52.55042457
12015570,3.58325195,-0.51326048,8.74636555,-5.15142679,1.91139734,0.56016338,-0.08769321,-9.14206409,51.17655754
12068570,2.56032038,-2.71824622,10.40638542,-3.82584882,1.97492719,0.03359759,-4.99853801,-21.14147949,45.98801613
12121570,0.53359944,-2.55194545,9.33021355,-3.30905700,2.28035975,0.21868975,-9.66091823,-28.66851807,40.14177131
12174570,0.32721850,-5.16131830,9.21057320,-2.83930159,2.07877445,0.13805555,-14.26483440,-33.71090317,31.63548851
12227570,-0.53838515,-5.99880648,8.05962467,-1.96209908,2.27913809,0.06352998,-18.53259182,-37.73019600,24.76614952
12280570,-2.64586377,-6.09392071,7.96630526,-2.95842052,2.13436294,0.14416420,-20.92955303,-40.58024025,16.55217933
12333570,-2.05005074,-7.46141958,5.94975328,-1.53693688,2.18689752,0.43860123,-23.50189876,-41.70564461,10.12131119
12386570,-4.01276350,-7.04626417,5.57707119,-1.59374738,2.23026896,0.13744467,-24.72961330,-42.10026360,2.53580952
12439570,-4.15812778,-7.74496889,4.60020161,-1.39216185,2.20278001,0.60231310,-25.62116146,-41.36948204,-3.85121203
12492570,-5.27378130,-8.71825027,4.15992260,-1.69209671,1.89001703,0.77335542,-26.67348766,-39.25021935,-11.12978554
12545570,-5.08773947,-9.45464039,2.62193561,-1.58702779,1.54671085,0.06719518,-26.29347896,-38.12481880,-17.03449202
12598570,-5.41675186,-9.10469055,1.58165574,-2.46545219,1.27487576,-0.25167647,-25.08038616,-36.75095177,-23.40689755
12651570,-5.67816830,-9.28594589,0.29790643,-2.32922935,1.12704635,-0.97371918,-22.06957149,-34.95322990,-28.72697830
12704570,-4.40219593,-10.09352398,-1.12642121,-1.96270990,0.82466811,-1.71592045,-17.90412044,-33.44782257,-33.91552162
12757570,-2.86839604,-10.63729286,-2.27078867,-1.75073969,0.73853606,-2.02013135,-13.38789654,-32.22011185,-38.50482178
12810570,-2.76012111,-8.88993454,-2.64705992,-1.70859003,0.65057147,-2.61205983,-7.84858227,-30.70008659,-40.65331459
12863570,-0.85962152,-9.02034378,-2.97188568,-1.26632357,0.71532321,-3.04027629,-2.38234234,-29.26775932,-43.53259087
12916570,0.51086766,-8.87916660,-3.76151705,-0.60292399,0.42943826,-2.51554298,2.63081265,-27.76235199,-43.91259957
12969570,1.17188489,-9.13759136,-4.33041048,-0.30726519,0.10690141,-2.57846212,7.10318661,-26.49079132,-44.51183510
13022570,2.22472715,-8.70149994,-4.56789827,0.16126841,0.17776178,-2.82891703,11.03478718,-25.95001602,-44.21952629
13075570,3.78783846,-5.94436979,-3.98225522,-0.05558874,-0.10812315,-1.87902153,14.49868489,-24.85384369,-43.79567146
13128570,4.77308321,-7.68574667,-4.32024097,0.11911872,0.33231071,-2.44285011,16.88103104,-23.99152374,-43.72259331
13181570,5.74815798,-6.21116972,-4.16590452,-0.17959438,0.34452799,-2.21133208,21.19263459,-21.90149117,-43.31335640
13234570,6.04247570,-4.87238503,-3.83031106,0.01038471,0.54672438,-1.78372645,24.64191914,-20.17684937,-42.81642723
13287570,6.75553656,-3.72562480,-3.17467713,-0.06352998,0.67073005,-2.15452170,28.35428357,-17.85296726,-41.83717919
13340570,7.75334358,-4.46381044,-3.43190575,-0.26267207,0.79045957,-2.03479218,31.80356735,-14.31598949,-40.50716210
13393570,8.25105095,-2.89112782,-2.94676089,0.13500123,0.87170470,-1.95049262,34.79976726,-11.23209620,-38.25635719
13446570,8.18823910,-1.82751822,-2.46580362,-0.02504547,0.75319684,-1.82770872,37.25518990,-8.10435605,-37.65711785
13499570,8.77747154,-0.90867442,-2.27318168,-0.85337871,0.51068336,-2.10320902,39.30137539,-2.14118719,-36.72171784
13552570,8.80319405,-0.51684976,-2.40418839,-0.62858033,0.37873644,-1.67499244,39.65215016,2.60888529,-36.37094307
13605570,8.53459930,0.65802616,-0.66281182,-1.18568945,0.45326200,-2.48622155,39.92984677,9.24437237,-34.38321877
13658570,8.87497902,2.36530519,-1.21435750,-0.53084189,0.34330627,-2.19117355,39.30137539,15.49985313,-32.54165459
13711570,8.67876816,2.48853564,-1.73958206,-0.07574729,0.11789699,-2.18262148,37.51827097,19.75299644,-33.14089394
13764570,8.27557755,4.21196651,-1.60917318,-0.46547931,-0.03726278,-1.93522108,35.50131655,24.47383690,-31.82548905
13817570,7.55593586,5.06141853,-1.99681044,-1.36528385,-0.19792034,-2.22965813,32.13972628,30.72931862,-31.18240166
13870570,6.64666319,7.90588617,0.12263216,-2.30540538,-0.13988814,-2.06777883,27.38965321,37.90558434,-27.04618454
13923570,6.93021250,6.20219612,-0.00059821,-1.65422297,0.10201450,-2.10015488,23.38497639,43.28412819,-23.09996987
13976570,5.77447939,7.41296434,0.30568308,-2.34388995,-0.06658431,-2.09343505,17.94797039,48.57497597,-18.08681584
14029570,3.88235497,10.20897770,2.57706976,-2.14963484,-0.12095132,-1.97920334,13.02250958,51.77580070,-14.02367640
14082570,4.26879549,8.29890728,2.09013057,-1.16003311,0.18325956,-1.21256745,10.42092991,53.06197166,-12.25518751
14135570,3.84048033,8.49452019,2.92941332,-2.10687423,0.14477505,-1.68110108,6.15317250,55.42970085,-6.35048127
14188570,2.47118759,9.04965496,3.61615300,-1.01281452,-0.07391470,-1.43614411,1.76849079,56.39433098,-3.92429018
14241570,2.35094833,9.24885845,4.50987244,-1.55892813,-0.20280725,-1.67865777,-3.01081371,56.27740288,0.79655170
14294570,1.62412846,8.64826012,4.87537575,-1.28526044,-0.56138515,-1.32496667,-7.20549679,56.37971687,4.39199161
14347570,1.22691977,8.04706287,5.18046093,-1.43247902,-0.66584307,-1.39827049,-10.88862896,55.80970573,7.79742813
14400570,0.39900318,9.09990406,5.71047163,-1.17530465,-0.75686198,-1.16125476,-13.92867565,54.58199120,12.40134620
14453570,1.08335042,7.50389194,5.89412069,-2.01157928,-0.98532563,-0.85398960,-15.50716305,53.13504600,17.86758232
14506570,0.94995064,7.84127998,6.36550617,-1.29075813,-0.67195177,-1.03541660,-16.99795055,51.01578712,22.10611152
14559570,0.61974102,7.27657366,7.11745119,-1.23761296,-0.72082096,-0.83932889,-17.75796413,48.28266335,26.50540733
14612570,1.06121695,6.29551601,7.31904650,-1.23822391,-0.56505036,-0.90346968,-18.50335979,45.56416130,29.94007683
14665570,0.32542390,5.99402094,8.22293472,-1.06595981,-0.53817225,-0.99754292,-19.83338451,42.94796562,32.74627495
14718570,0.94217396,5.92103958,6.76630402,-1.65849912,-0.63468897,-1.06718147,-20.22799968,39.29406548,36.67787361
14771570,0.34097722,5.23669243,8.87557697,-1.34268177,-0.40927970,-1.07206845,-21.07570553,35.40631294,39.26483726
14824570,0.88654077,4.32562494,8.09312439,-1.26876712,-0.64507365,-1.02503181,-21.55802440,31.63548470,41.48641014
14877570,0.14297116,3.41934347,9.63769150,-1.65483391,-0.41905355,-0.95844758,-20.95878505,26.81233597,44.17568016
14930570,0.57008994,3.34396958,9.54496956,-1.09039438,-0.52473319,-0.56016338,-20.44723797,23.01227570,47.02572441
14983570,0.72442704,3.09990168,8.89352322,-1.32191241,-0.40683624,-0.47952920,-19.55568599,19.70914841,48.56036568
15036570,0.81595254,2.48853564,9.35414124,-1.17530465,-0.25839600,-0.38179076,-19.13183117,16.02601433,49.59807014
15089570,0.96251291,1.63130689,9.44746208,-1.30114293,-0.10629055,-0.25961775,-18.72259426,12.24057198,50.22654152
15142570,1.00319088,1.04027963,9.80638599,-1.21806526,0.04092797,-0.35674530,-18.48874569,8.16281795,50.56270027
15195570,0.68255264,-0.23629124,9.96730232,-1.47829378,0.10873401,-0.33169982,-18.40104961,4.39199066,51.00116920
15248570,0.63170522,-1.03968143,10.14437103,-1.42270505,0.21135938,-0.17104226,-18.81028652,0.18269443,49.67115211
15301570,0.76450682,-0.38524446,9.73639584,-1.23272610,0.13255775,0.09712757,-19.20491314,-3.20812678,49.84654045
15354570,0.52223361,-1.76889420,9.58684349,-1.21012402,0.21074851,0.17592919,-19.07337093,-6.67202616,48.83805656
15407570,0.23569304,-2.49152660,10.00857925,-0.85521132,0.16249016,0.28588492,-19.54107189,-8.83513641,47.71265602
15460570,0.00119641,-3.20219493,9.86680508,-0.44470990,0.04948008,0.40622538,-19.73107052,-10.25285053,46.93802833
15513570,0.22313070,-2.49212480,9.64068222,-0.09590584,-0.02626720,0.66523224,-20.53493023,-9.91669178,47.09879875
15566570,0.07956135,-2.60698056,9.63230801,-0.13927726,0.02504547,0.90713489,-20.72493267,-9.34668255,47.43495750
15619570,-0.12323037,-3.22851610,10.04088211,0.22113320,0.06475171,1.02991879,-21.87956905,-7.94358420,47.44957924
15672570,-0.18424734,-2.98743916,10.14377213,0.29871312,-0.09529497,0.95478237,-21.95264339,-5.95586133,47.81496620
15725570,0.34097722,-2.68534517,9.43250656,0.80512035,-0.11301007,1.03908181,-22.36188411,-3.48582339,48.63344002
15778570,-0.24705894,-2.15653157,9.48395252,1.01342547,-0.17470746,0.96150190,-22.59572887,0.37269783,48.48728370
15831570,0.28414771,-1.92682040,9.32303524,0.98899078,-0.07024951,1.08062065,-22.31803417,4.14352512,48.63344002
15884570,-0.34157544,-1.02293169,9.68076229,0.64751714,-0.06414085,1.16553092,-21.89418316,7.03741550,48.34112739
15937570,-0.64486575,-0.78006017,10.42074203,0.92607170,-0.03237586,1.19912839,-21.29494381,10.60362339,49.01344490
15990570,-0.45702910,-0.21355942,10.14975548,1.06229472,-0.07330383,1.34756875,-20.75416088,15.55831718,48.50190162
16043570,-0.28055847,0.21595225,10.09830952,1.10810947,-0.13316862,1.45691359,-19.74568844,19.73838043,48.58959770
16096570,-0.54257250,0.64127642,10.48953629,1.20645881,-0.35918877,1.50456107,-18.03566265,24.32768059,47.99035454
16149570,0.13459629,1.17308128,9.95234776,0.99204516,-0.46975538,1.46302223,-14.95176983,27.55772972,47.11341667
16202570,0.54376900,1.52362990,10.28913689,1.65177953,-0.31703907,1.32863188,-12.62788677,31.85471916,45.46185493
16255570,1.16410828,2.94018102,9.49651432,1.66888380,-0.28466320,1.30480814,-10.15784740,36.70710564,42.53873634
16308570,1.24366951,3.12442827,10.84187889,1.50333941,-0.51495939,1.45263755,-2.83542537,40.60947227,40.40485191
16361570,2.02133703,3.54317212,8.93898773,2.01829863,-0.36896262,1.42514861,-2.85004329,43.54720879,36.28325081
16414570,2.25942278,4.41356134,9.31107140,2.06655717,-0.12095132,1.20462620,0.04384709,47.05495644,32.71704292
16467570,2.41196513,5.40598488,8.05244637,2.22782540,-0.24251351,1.23578036,3.56621075,50.21192741,26.53463936
16520570,3.32123780,6.38345289,8.24686337,1.92850161,-0.40011674,1.34512520,7.46857739,51.77580070,21.68225670
16573570,3.97208571,6.07836771,5.62313318,2.05311823,-0.44043383,1.31152773,10.93247700,53.64659309,14.94446182
16626570,4.49431944,7.23469925,5.86899567,1.67499244,-0.40194932,1.48990023,15.09792614,52.41888618,9.44899368
16679570,5.29770947,6.39780951,4.25503731,2.50515819,-0.71898842,1.75196159,20.40339184,51.65887260,3.17889595
16732570,5.67936468,6.85065126,3.52343130,1.87902153,-0.35674530,1.62734497,24.80269051,49.24729729,-1.68810177
16785570,6.68076086,6.33798885,2.69312215,2.06411362,-0.56932640,1.83503914,29.18737328,45.50570106,-7.63665497
16838570,7.19701242,5.66979361,1.66181540,1.42514861,-0.40439278,1.65666652,33.68898106,41.57409859,-11.81671930
16891570,7.79162884,6.05802870,1.96989119,1.56503677,-0.35979962,1.67560339,36.58287192,37.02864647,-15.85062742
16944570,8.46221733,4.40399027,0.34576288,1.72935951,-0.29688048,1.80144155,40.28062058,30.55393028,-19.31452656
16997570,8.74935627,3.76450825,0.29431719,1.91872764,-0.22113320,1.94621670,42.28295994,24.54691505,-22.67611790
17050570,8.64287472,3.41874528,0.45403808,2.21866250,0.02993240,1.96881855,44.84069062,17.44372940,-24.75153351
17103570,9.11186886,1.87836587,-0.29790643,1.27915180,-0.20036380,1.90528870,46.03917122,10.77901173,-25.58462334
17156570,9.50369358,0.59342003,-0.70229346,1.41537476,-0.16065755,1.65910995,46.53610134,4.46506786,-26.56386948
17209570,9.65204811,0.18305093,-0.28654051,0.60781091,-0.33719760,1.23761296,46.33148289,-0.22654247,-28.36158943
17262570,9.67418194,-0.74536431,-0.65742803,0.62980205,-0.42455134,0.97494090,45.79070473,-4.14352581,-29.12160111
17315570,9.38165951,-0.95892370,-1.16949201,0.88819808,-0.37629297,0.83444190,44.95761490,-7.13972569,-29.41391373
17368570,8.99940586,-0.72622168,-0.50189453,0.63407815,-0.23823744,0.90041536,44.32914353,-10.06284761,-29.91084290
17421570,9.30688381,-1.69531488,-1.07736838,0.96944314,-0.24373522,1.10016835,43.13066483,-13.67290306,-29.98392105
17474570,8.99581623,-2.22532487,-1.33100772,0.77763146,-0.33475414,1.10444438,41.44986916,-17.18064976,-30.15930939
17527570,8.82592678,-3.14177608,-1.29332066,0.71837753,-0.50579643,1.29136920,39.59368801,-22.13533974,-30.94855309
17580570,8.55493927,-3.60179639,-1.14915311,1.09589219,-0.63102382,1.14659405,37.21134281,-25.24846649,-30.80239678
17633570,8.06620502,-3.90089917,-0.98703939,1.05374253,-0.65484756,1.25166285,34.94592333,-28.55159378,-30.56854630
17686570,7.71206760,-4.87717104,-0.98823577,1.63895142,-0.87292641,1.51555669,31.30663663,-32.92166328,-29.72084236
17739570,7.51824903,-6.52702188,-2.12781763,1.06657064,-0.58154368,1.30358648,27.34580660,-37.30634499,-27.67465592
17792570,6.58983326,-7.02532768,-0.65563345,0.39767328,-0.50213122,1.18507862,23.57497931,-38.98713875,-27.23618698
17845570,6.73878670,-6.72502851,-0.60059845,1.09528136,-0.26145032,0.71776664,21.64571858,-40.96024513,-26.34463501
17898570,6.27338314,-6.98285437,-0.99481606,1.04641211,-0.42516220,0.66095620,19.73107338,-42.97720146,-24.40075874
17951570,6.21296453,-8.12123966,-0.53240305,0.84360486,-0.49235740,0.51373768,17.65565682,-44.67260933,-23.08535481
18004570,5.44307327,-6.55453968,-0.47856450,1.35612082,-0.80573124,0.46792275,15.87255287,-46.13417244,-20.84916592
18057570,5.54955435,-8.25344372,-1.09112704,0.92607170,-1.11116385,0.87536985,12.24788189,-47.44957542,-19.10990906
18110570,4.97108889,-8.04108143,-0.11425728,0.85826564,-1.06412721,0.78190750,9.77784443,-48.25343514,-17.41449738
18163570,4.75752974,-8.42512894,-0.38524446,0.83077675,-1.07451200,0.67683870,6.57702542,-48.92575264,-14.38906670
18216570,4.54516649,-8.45623493,-0.29910284,0.82161373,-1.06840336,0.65240407,4.25314236,-49.64192009,-13.67290163
18269570,4.13300276,-8.78584671,0.16989039,0.93645644,-1.14292884,0.61453038,1.97310734,-50.21192741,-11.48056030
18322570,3.98763895,-8.94496918,-0.01375873,0.87842417,-1.22173047,0.37995815,-0.38000393,-50.81116676,-9.77053392
18375570,3.62273359,-8.79362297,0.15972091,0.81367248,-1.18202412,0.25473079,-1.41771221,-50.81116676,-7.24203360
18428570,3.59581423,-8.69192886,0.12382857,0.75930548,-1.23516953,0.35124749,-2.90850353,-50.89886284,-3.63197804
18481570,3.23210526,-9.50907707,-0.02033899,0.39950585,-1.25532806,0.18264872,-3.82928753,-51.04501915,-2.56503821
18534570,3.09691072,-8.48315430,0.11665011,0.57238072,-1.13071156,0.04886922,-4.26775646,-50.88424492,-0.92809010
18587570,2.92043996,-9.21176815,0.84945208,1.01403630,-1.23150432,0.34208453,-5.02776623,-51.27886772,2.00964737
18640570,2.99401927,-9.28175926,0.34636107,0.80450952,-1.15148091,0.29504791,-5.51008129,-50.82578468,4.20198917
18693570,2.74217463,-9.10289574,1.01694965,1.60779727,-1.00304067,0.36651912,-5.90470409,-50.08038521,8.33820724
18746570,2.66560459,-9.05922699,2.03509569,2.74767184,-1.08489656,0.50274211,-6.27009487,-48.16574287,15.04677009
18799570,2.67876482,-9.46780109,2.32343078,1.68843150,-1.22906077,0.26328292,-6.81087398,-46.33878899,20.57147026
18852570,2.52921343,-8.77089119,3.38704062,0.99509948,-0.93889982,0.18203785,-6.13855266,-44.95030785,23.78690529
18905570,2.84207511,-8.70030403,3.28654194,2.33533788,-1.28403866,0.13927726,-4.98392391,-42.53873253,28.72698021
18958570,2.86480689,-8.60638523,3.18783784,1.27487576,-1.17896986,0.12034045,-2.86465740,-39.36714363,33.08243370
19011570,3.14715981,-8.00937557,4.89152765,1.44652891,-1.08245325,0.08063421,-1.19848156,-37.55480766,35.85939979
19064570,3.38285327,-7.59601545,4.69711065,1.39032924,-1.13132238,-0.12522738,0.99386311,-33.90090752,39.13329506
19117570,3.82373071,-7.20060158,5.11166763,1.25960410,-0.91935217,-0.19914205,3.59544087,-31.46010017,40.77024269
19170570,4.35314274,-6.83150864,5.46161747,1.68049026,-1.11055303,-0.09590584,6.31394291,-28.18620300,43.56182670
19223570,4.35553503,-6.66640377,5.71525669,1.41842914,-1.25960410,-0.01221730,8.44782353,-25.29231262,45.52031517
19276570,5.21635294,-6.16750050,6.30209684,1.50944805,-0.99509948,-0.16676621,11.07863331,-21.95995331,47.27418709
19329570,5.19960403,-5.30369139,6.07238579,1.28281701,-0.91568702,-0.14233160,13.62174893,-17.70681095,48.26805305
19382570,5.46759939,-5.14516687,6.21655321,1.22234130,-0.77946407,-0.14294246,16.36948395,-14.40368366,49.10114097
19435570,5.75593519,-4.62951374,6.27039146,1.22234130,-0.67867124,-0.16065755,18.50336361,-11.69979572,49.52499580
19488570,6.03589487,-4.47098923,6.45404100,1.14598310,-0.60109138,-0.18020524,20.12569523,-8.00204659,49.70038032
19541570,6.25842762,-3.62871552,6.31406069,1.02686453,-0.61636305,-0.16920967,21.38263798,-5.61970234,50.22654152
19594570,6.48873663,-3.33619285,6.44865704,1.30908418,-0.53328532,-0.16737707,22.85881424,-2.22888112,49.67115211
19647570,6.71665335,-2.82412910,6.27338314,1.36284029,-0.60048056,-0.20097466,24.37883759,0.97193718,49.39345360
19700570,7.02114010,-2.29651141,6.59641409,1.48501348,-0.51801372,-0.17776178,25.27039004,5.53200722,48.51651573
19753570,7.19461966,-1.85264289,6.58803892,1.19729590,-0.56382859,-0.20769419,26.32271385,8.87898254,46.41186714
19806570,7.42253542,-1.41475630,6.30329323,1.44652891,-0.62430423,-0.38056904,27.82812143,12.75211906,45.40339470
19859570,7.64686298,-0.85483587,6.34217644,1.12277031,-0.68294734,-0.53450710,29.01198602,16.39140511,43.66413688
19912570,7.99741173,0.00957129,5.93120909,0.87964594,-0.78251839,-0.68905598,30.37123764,19.15375519,40.68255043
19965570,8.09192848,0.50368917,5.40119886,0.38117990,-0.73853606,-0.76113808,31.55510199,21.95995140,39.54253197
20018570,8.22173882,0.61615187,5.34855652,0.39400810,-0.73120570,-0.96761054,31.48202396,23.71382523,38.15405083
20071570,8.21037292,1.51525486,4.65403986,0.01466077,-0.73670352,-0.99632114,31.89126104,26.37386703,36.61940956
20124570,8.45444107,1.65942252,4.60917473,0.06658431,-0.70982540,-1.10872042,31.64279568,27.42618942,34.86553764
20177570,8.41914654,2.25224447,3.98644233,-0.42394045,-0.78007489,-1.07634449,31.92049223,29.37006569,34.10552406
20230570,8.32462978,3.09272313,3.68016124,-0.25839600,-0.49480084,-1.02014494,31.13124933,30.58316231,33.75475120
20283570,8.10329437,3.72562480,3.34038043,-0.36041048,-0.20158553,-0.79168135,29.64045716,31.67933464,33.62320900
20336570,8.18823910,3.26859593,3.73220539,-0.68050385,-0.19669861,-0.60414571,29.12891090,32.00087547,33.59398079
20389570,8.34915638,3.35294271,3.83210540,-0.25900686,-0.16187929,-0.66034532,28.00350881,32.35165215,34.19322014
20442570,8.15832901,3.74237442,3.69212556,-0.20402899,-0.08735373,-0.60964352,27.62350321,32.95089149,34.39783668
20495570,8.23071194,3.88414931,3.81356096,-0.16493361,-0.06780604,-0.56810468,26.89272261,33.27243233,35.30400657
20548570,7.91186810,4.27956343,3.73699093,-0.12828170,-0.09162978,-0.94500852,25.72347403,34.50014687,34.67553520
20601570,7.77727175,4.82213593,3.60418892,-0.47525313,-0.10629055,-0.82894409,24.74422837,34.90938377,35.46477699
20654570,7.58165884,4.76590443,3.93021154,-0.40744710,0.11850785,-0.91935217,22.28880596,35.74247169,35.80093574
20707570,6.99541712,5.77747011,3.87039089,-0.83932889,-0.09529497,-1.06473815,20.78339863,35.33323479,37.18941688
20760570,6.83928585,5.69013214,4.07318258,-1.26937795,0.10018190,-0.81367248,19.77492142,34.32475853,38.85560036
20813570,6.81774950,4.85922480,4.84008217,-1.70675743,0.21685717,-0.70677108,18.13797188,31.73779488,42.30488396
20866570,6.11485863,5.30488777,5.13798857,-1.84969997,0.45998150,-0.70921457,16.10640240,28.69774818,44.61415291
20919570,6.14835787,4.50269365,5.86839771,-2.14596939,0.58826327,-0.62002820,14.19175816,23.99152184,47.99035454
20972570,5.79840755,4.11505699,6.51087046,-1.75318325,0.77885318,-0.56688291,11.10786534,19.69453239,50.66501045
21025570,5.19182730,3.84406948,7.13659334,-1.71164441,0.87536985,-0.54550260,8.84244442,15.86524391,51.54194450
21078570,4.86101913,3.46839643,7.97527790,-1.46607649,0.97799522,-0.34086278,6.67933560,11.69979477,52.50658226
21131570,4.41057014,3.24586368,8.07517815,-1.07878792,1.07084680,-0.30237830,3.97544766,8.99590778,52.59427070
21184570,4.14197588,2.12961221,8.52443027,-1.49784160,1.13865280,-0.35613444,-2.23618602,5.23969555,53.44197273
21237570,3.16331148,1.97946250,8.94855881,-0.97310835,1.25716066,-0.37201694,-2.01695156,2.11195469,53.57351494
21290570,2.79122782,1.45064878,9.82313538,-1.24860847,1.14415061,-0.22235495,-5.14469433,-0.56270146,52.82812309
21343570,2.59740901,0.51565325,10.60259724,-0.97616267,0.89980453,-0.18570304,-7.52703762,-4.50891605,52.55042457
21396570,1.76291215,0.85064852,9.77647591,-0.63713247,0.85337871,-0.27733281,-9.57322597,-5.97047699,51.11809730
21449570,1.92263305,-0.21834506,9.18126106,-1.82282186,0.58765233,-0.33292153,-11.86787319,-9.96053839,49.83192253
21502570,1.20059872,-0.77587283,10.11087227,-1.72508335,0.42760566,-0.41966444,-12.52557659,-15.29523563,48.67728615
21555570,1.51346028,-1.94775760,9.32782173,-1.83564997,0.48319441,-0.55038959,-12.18941784,-19.62145615,45.44724083
21608570,0.69332033,-2.93060946,10.08155918,-2.76783037,0.38484508,-0.62308252,-12.26249599,-26.62233353,41.41332817
21661570,0.99421781,-4.37408018,9.27338409,-2.32434225,0.48808134,-0.81122899,-12.23326397,-32.42473030,36.97018623
21714570,1.17667055,-5.18524647,9.03290653,-1.77700698,0.38240165,-0.78923786,-10.96170711,-37.01403236,32.81935310
21767570,1.17726874,-5.77328253,8.24147987,-1.85214341,0.20341812,-0.92729342,-9.19321727,-40.79947472,28.25928306
21820570,1.49192488,-6.29910612,7.39262533,-1.81365895,0.25350907,-0.93889982,-7.13241863,-44.42414665,24.26922035
21873570,1.16949201,-6.31465912,7.05164862,-1.89307141,0.34758231,-0.85215700,-4.86699581,-46.39725304,19.16837311
21926570,2.12422824,-7.86640501,6.33081055,-2.16429543,0.09285152,-0.92973685,-1.97310924,-49.13036919,12.95673752
21979570,2.21515560,-8.62672329,5.71166754,-2.39031577,-0.09590584,-0.80450952,0.73078251,-50.88424492,6.74510479
22032570,3.01017094,-9.12143898,4.55713081,-2.22416043,-0.38240165,-1.20096111,3.25928402,-51.73195076,0.76732063
22085570,3.29551506,-8.34496880,3.25304246,-2.36282659,-0.58826327,-1.28281701,6.85472203,-51.58579445,-6.16047836
22138570,3.99721026,-8.49870777,2.26540470,-2.14047170,-0.68050385,-1.49051118,10.08477116,-50.31423378,-12.43057490
22191570,4.97946405,-8.14457035,1.04267251,-1.71164441,-0.65118229,-1.58947134,13.25635815,-48.85267448,-16.02601481
22244570,5.26899576,-7.85982418,0.10707881,-2.05556154,-0.66523224,-1.67315996,16.67641068,-45.54954720,-20.95147515
22297570,6.36550617,-8.02851868,-0.73100734,-1.71530962,-0.44226640,-1.75990272,20.11108017,-42.56796074,-26.68079376
22350570,6.66580582,-6.09152842,-1.70428801,-1.69820535,-0.27977628,-2.08977008,23.85267592,-37.40865135,-30.83162689
22403570,7.50329351,-6.14895535,-2.13080859,-1.31397104,0.00733038,-2.00974655,27.40426898,-32.51242256,-34.04706192
22456570,7.95254660,-4.83290339,-2.61116791,-1.34817958,-0.06291912,-2.18078876,30.03507865,-27.22157288,-35.46477509
22509570,8.36710262,-4.05822706,-2.88753867,-0.95417154,-0.21746802,-2.74339581,33.35282183,-20.96609306,-37.16018486
22562570,8.52443027,-1.29391897,-3.26620293,-0.37995815,0.03176499,-1.71714222,35.29669810,-16.30371285,-38.16866303
22615570,9.29850864,-1.18624187,-3.19082880,-0.37201694,0.03848451,-1.35917521,36.05670977,-13.08827877,-38.92867661
22668570,8.78165913,0.14416757,-3.20518613,-0.49663341,0.26939157,-1.41537476,37.69365740,-9.72668886,-38.56328392
22721570,9.07478046,0.07477571,-2.87796760,0.02199115,0.35735616,-0.91385436,38.61444140,-7.05203199,-37.90558243
22774570,8.79182911,0.60000032,-2.81994176,-0.24862215,0.11545353,-0.79901171,38.96521616,-5.42969942,-38.22712517
22827570,9.54915714,-0.14057833,-3.05025077,-0.26878071,0.12767084,-0.78007489,39.30137539,-2.62350249,-37.43788338
22880570,9.69930649,0.31345978,-2.85164642,0.05253441,0.44226640,-1.16614175,40.44139195,-0.51885438,-36.57556153
22933570,8.95095158,2.47597313,-2.02133703,-1.80327415,0.22113320,-1.72019649,40.85062981,5.28354263,-36.26863289
22986570,9.22911739,4.04506683,-2.57647157,-2.38298535,-0.05986479,-1.43736589,39.66676522,13.46828461,-34.85091973
23039570,7.82931566,4.47936440,-1.48474658,-1.72813773,0.25778511,-1.26754546,38.48290062,20.05992317,-33.02396774
23092570,7.55952501,5.75653315,-0.90807617,-0.88392198,0.03237586,-1.18263519,36.97749329,24.76615143,-31.27009583
23145570,7.20239592,6.11844778,-1.38664067,-2.09221339,-0.22052236,-1.16736341,36.11517191,29.00467491,-30.08623123
23198570,7.57806921,5.45922518,0.78245300,-1.54060221,-0.46303585,-1.08795094,33.51359368,33.71090507,-24.50306893
23251570,6.93320370,5.89232635,-1.10189474,-1.63101017,-0.68355817,-1.45935702,29.46506989,38.13943291,-26.06693840
23304570,6.98524761,6.77527714,0.21296121,-2.49171925,-0.54489177,-1.33168614,26.03040171,43.91259956,-22.52996159
23357570,5.67996311,7.44407129,-0.04127619,-2.09465694,-0.22052236,-1.44103110,21.90879917,48.23881721,-18.42297459
23410570,5.30787897,8.10209751,2.25344062,-3.01584148,-0.24556783,-1.40926611,17.88950730,52.25811195,-10.48669887
23463570,5.14097929,8.15892696,2.04287243,-2.24798417,-0.37018433,-1.02136672,14.44022274,54.97661400,-3.99736834
23516570,4.56131840,7.51824903,3.89013147,-1.62612331,-0.10018190,-1.00670588,11.73633671,55.53200722,1.29348278
23569570,4.06540585,7.58046246,4.20598412,-1.68537724,-0.21013764,-1.15881145,8.84244442,56.02893639,6.13124943
23622570,4.02412987,7.46500826,5.11585522,-1.81549144,-0.11972959,-1.27304304,5.46624089,56.39433098,12.12364960
23675570,3.14536548,7.70788002,5.51784897,-1.52777398,-0.17898352,-1.11605084,2.20695782,55.78047371,16.43525314
23728570,2.74576402,6.87039232,6.32423067,-1.51494575,-0.02932153,-1.10688782,-0.57000828,54.42122078,19.56299591
23781570,2.34077883,6.88534737,6.58086061,-1.10933125,0.04214970,-1.06840336,-4.04852199,53.10581779,23.62613487
23834570,2.22532487,6.52343321,6.34636354,-0.08429940,0.37201694,-1.10810947,-7.16164684,52.36041832,24.95615578
23887570,1.50029981,6.59222651,6.97866726,-1.53999126,0.26083943,-0.98776913,-9.86553478,50.15346336,27.14849663
23940570,1.28075826,5.74097967,7.99980402,-1.87413454,0.12461651,-0.98593646,-12.71557903,47.28880119,32.05934334
23993570,0.39481577,5.31565571,8.80618572,-1.55648458,0.12400565,-0.89858276,-14.52791500,43.83952141,35.62555122
24046570,0.69092757,4.60498714,9.43669415,-1.46424401,0.25106561,-1.04519045,-16.61794948,39.14790916,38.54867363
24099570,0.08554341,2.41316152,9.27577782,-0.06719518,0.35735616,-0.92179567,-19.87722683,38.06635475,38.47559547
24152570,-1.04267251,4.85324287,9.81117058,0.43249258,0.09651671,-1.07206845,-21.96725750,37.99327660,37.43788719
24205570,-0.20757736,4.76710129,8.54118061,-1.03541660,-0.30054569,-0.88208944,-22.28880214,34.90938377,39.65946007
24258570,-0.39840496,4.36271381,9.29192829,-1.12215948,-0.01954769,-0.97433001,-23.53113079,32.07395363,40.27330971
24311570,-0.93080801,4.34596443,8.54656410,-0.32192597,0.74953163,0.03970624,-25.16807461,29.85238075,40.85793876
24364570,-1.46380925,3.64785814,8.94257736,-0.61575216,1.08428574,0.33658674,-26.51271343,29.72083855,40.18561745
24417570,-1.46979129,2.80079889,9.22851849,-0.52900928,1.09039438,0.57971114,-28.38351345,29.12160301,39.14790916
24470570,-2.17567396,3.44267368,9.43729210,-0.58887410,1.16430902,0.57421333,-29.75737667,28.11312294,37.94943046
24523570,-2.57228422,2.58664131,9.49591732,-0.62552601,1.04274690,0.91690868,-31.24817180,28.85851860,37.54019356
24576570,-2.88095856,2.86899447,9.51685429,-0.88636547,0.89125240,0.65118229,-32.13971996,28.25927925,36.31248283
24629570,-3.46600342,3.21415901,8.92702389,-0.80267692,0.83199847,1.21684349,-32.22741985,28.71236610,36.63402366
24682570,-3.07118797,1.72522509,9.18126106,-0.76663584,0.68172556,1.52838480,-31.81817913,29.79392052,36.28325081
24735570,-3.53001142,1.45722914,9.38106155,-0.66217792,0.54550260,1.34879041,-31.29201793,30.64162636,36.13709450
24788570,-3.86739945,2.14875460,9.46301556,-0.77335542,0.44287729,1.45630276,-30.37123394,31.35778999,36.53171730
24841570,-3.62751913,1.68035972,9.31705379,-0.58643061,0.21746802,1.67682505,-28.42735958,32.87781334,36.76556587
24894570,-3.45344138,1.40578330,9.75493908,-0.62430423,0.07024951,1.47340703,-25.84039974,33.90090370,37.81788826
24947570,-3.65324187,1.86640179,9.58863831,-0.70616019,-0.24068090,1.60718644,-23.42882061,34.52937508,38.88482857
25000570,-2.88095856,1.74616230,9.21356392,-0.32009339,-0.32009339,1.64322746,-20.28646373,34.92399788,39.96638679
25053570,-2.70987177,1.82033980,10.17428207,-0.86315256,-0.82833326,1.62673414,-15.60946941,35.12861824,42.10026741
25106570,-1.25324082,1.31904364,8.89053345,0.12583824,-0.97433001,1.77517426,-10.42092800,34.96784782,44.02952385
25159570,-1.61874449,1.55952227,10.32502937,0.35613444,-1.04274690,1.70003796,-5.94855404,35.72785759,43.72259712
25212570,-0.67716885,1.67557406,9.26859856,0.32131511,-1.03419483,1.54243469,-0.96462917,36.37094307,42.80181312
25265570,0.13878372,2.27736878,9.88893795,0.43188173,-0.67256260,1.50456107,3.72698307,36.61940575,42.58257866
25318570,0.40618163,2.33001089,9.97807121,1.04091430,-0.85887653,1.76662230,8.41859341,37.35019112,40.91639900
25371570,1.10727870,2.56570411,9.13759136,0.94256508,-1.09894657,1.84969997,14.11868000,37.49634743,39.16252708
25424570,2.17447758,3.01076913,9.35533810,1.07206845,-1.24249983,1.74340940,20.12569523,37.81788826,35.90324592
25477570,2.32881474,3.57068968,8.78405190,1.08489656,-1.16430902,2.03295946,25.75270510,36.44402122,32.27857399
25530570,3.80997181,3.14476705,7.85144901,1.59496915,-1.10016835,2.53936672,32.49050093,34.77784157,28.09851265
25583570,4.33340168,3.38524580,8.72303486,1.00365150,-0.98532563,2.33045101,38.36597586,31.27009773,24.25460625
25636570,5.55792856,2.67816710,7.12702227,0.99326682,-1.17163956,2.38542867,43.29143715,26.30078888,20.57147026
25689570,6.37866688,1.97647154,6.56470919,0.66401052,-0.97371918,2.29807496,47.35457516,20.80532074,16.53756141
25742570,6.85842752,1.92024016,6.93021250,0.80756384,-1.06168377,2.19911480,50.64308834,15.14907837,12.70827293
25795570,7.23469925,1.39740849,6.16630411,1.31091678,-1.06473815,2.52837110,52.38234616,8.63051605,9.12744903
25848570,7.86700249,0.39003009,4.86281395,0.83688539,-0.81794852,2.53631258,53.90236950,1.67348671,5.42969990
25901570,8.16909599,-0.94157571,5.28275394,0.48991391,-0.79962260,2.18384337,53.88775349,-4.83045948,2.84273720
25954570,8.35274506,-1.77726901,4.40518665,0.63041288,-0.80145520,1.67682505,53.18620396,-10.73516560,1.29348278
26007570,8.50588703,-1.88733888,4.96391058,0.51679200,-0.77640975,1.51738930,51.59310246,-14.53522396,-1.22040224
26060570,8.24566746,-1.99860513,4.69711065,0.42149702,-0.86070913,1.41781819,50.74539852,-18.05758572,-2.28734160
26113570,8.21456051,-2.73439789,3.60598397,0.67867124,-0.91568702,1.78922427,48.94767666,-22.74919701,-4.20198679
26166570,7.49432087,-3.98165679,3.44865584,0.66767573,-0.96699971,1.71714222,46.60917950,-30.61239433,-5.64893198
26219570,7.92323399,-4.90169716,3.61495709,0.75258595,-1.21684349,1.72752690,43.70067406,-30.56854820,-7.24203360
26272570,7.21735144,-4.56131840,2.45563436,1.60413206,-1.06229472,1.67010558,40.70447350,-34.63168716,-6.73048711
26325570,7.19342327,-5.05304337,3.08135748,1.10200083,-0.84482658,1.94866002,36.45133114,-38.76790428,-7.22741795
26378570,6.83390141,-6.60119963,2.68355060,1.04335773,-0.80878556,1.82037842,31.94972348,-42.27565193,-5.78047276
26431570,6.08195686,-6.78125954,3.47437835,1.26815629,-0.85765481,1.69209671,28.42736149,-45.05261803,-4.65507078
26484570,6.04965401,-7.15334320,3.39900446,1.20340455,-0.96516705,1.60168862,23.95498514,-47.21572685,-3.51505280
26537570,5.47118902,-7.28674316,3.04307222,0.87170470,-1.15697873,1.54915416,19.02952481,-48.66267204,-1.79041100
26590570,4.95673227,-7.96331358,2.80438852,0.84177226,-1.40865529,1.73119199,14.36714459,-50.02192497,-2.09733915
26643570,4.71984291,-7.89152908,3.00837636,0.67011917,-1.13315499,1.37322509,10.47939396,-50.76732063,-0.47500706
26696570,4.10129786,-8.21755219,2.98085880,0.53328532,-1.13865280,1.22844994,6.50394726,-50.53346825,0.89886093
26749570,3.91705084,-8.71286488,3.45942330,0.20097466,-1.33351874,0.91263264,4.23852825,-51.01578331,1.17655754
26802570,3.19322181,-7.52542734,2.10329103,0.21930061,-1.29381263,0.85398960,2.55773258,-50.69424248,1.64425754
26855570,3.71246433,-9.51685429,2.65124726,0.51495939,-1.31213856,1.21684349,-1.16924572,-50.44577599,2.00964737
26908570,3.02692056,-8.92522812,3.02811718,0.95233893,-1.57358885,0.76052719,-2.89388942,-50.19731331,4.71353531
26961570,3.39122772,-9.02871895,3.21176600,0.20647244,-1.52777398,0.41416663,-4.04852199,-49.68576241,6.61356449
27014570,3.13699055,-8.69491863,2.08893442,0.19792034,-1.62856674,-0.04153884,-3.68313122,-49.81730461,7.27126694
27067570,3.21834636,-8.86600590,2.96410918,1.04580128,-1.65972078,0.25106561,-3.08389568,-49.10114098,9.63899422
27120570,3.16271305,-8.85523796,2.74456763,2.26936436,-1.79960907,0.50274211,-3.08389568,-47.81496620,15.67524147
27173570,3.42113829,-8.70389271,2.98384976,1.18752193,-1.64078403,0.51679200,-2.76234722,-46.11955452,20.58608818
27226570,3.74895501,-9.23689365,3.61794806,1.30175376,-1.90284526,0.20402899,-1.35925197,-44.84799767,23.94767570
27279570,3.92662191,-8.41974545,2.64765811,1.16186571,-1.79777634,0.16676621,0.24846745,-42.62642479,28.05466270
27332570,4.36032057,-8.47119045,4.00319242,0.75808376,-1.71653128,0.16310102,2.14849758,-42.26103783,29.56007194
27385570,4.15513611,-8.06261635,2.87019086,0.99632114,-1.74707460,-0.23212878,5.90470791,-40.90178108,30.81701469
27438570,4.61156750,-7.48833895,3.63110805,0.81550509,-1.88879526,-0.12644911,8.76936817,-39.58637810,31.94241524
27491570,5.07577562,-7.15154886,3.85364079,1.61451685,-2.28524685,-0.11484267,13.21251202,-37.86173821,33.25782204
27544570,5.58664274,-7.66241646,3.09033060,2.08732653,-2.28952289,-0.12400565,16.80795193,-34.09090805,36.91172218
27597570,5.75234556,-7.02114010,3.17228460,1.75501585,-1.78067207,0.10629055,20.60801029,-30.49547005,37.58403969
27650570,6.04845762,-7.13001347,3.69152713,1.59069312,-1.58030832,0.11301007,23.60421038,-27.85004425,38.53405571
27703570,6.10349226,-6.03469896,3.51027083,1.63467538,-1.48623514,0.00244346,26.81964445,-24.35691261,38.88482857
27756570,6.17587519,-6.04427004,3.43130755,1.41048777,-1.31336021,0.19058995,29.04121709,-22.47150040,39.39637565
27809570,7.04865742,-7.14078093,4.08993196,1.40071404,-1.36345112,0.19914205,31.84741414,-20.33762169,38.81175041
27862570,6.75852728,-6.97328377,4.00199604,2.12947631,-1.39277267,-0.70310587,34.36129904,-16.11370945,38.59251594
27915570,7.02353287,-4.73539591,3.56051993,2.52592778,-1.06168377,-0.41538838,36.99210882,-10.35515976,38.44635963
27968570,7.91007376,-5.08355188,5.03808784,2.49966073,-1.18507862,-0.44043383,39.59368801,-4.09967899,38.05174064
28021570,8.16909599,-3.97806764,3.74058008,2.43674135,-1.43797684,-1.15392447,41.78602791,2.05349255,34.66091728
28074570,8.45743179,-2.28335118,3.62871552,2.39947844,-1.39949226,-1.27915180,42.73604298,9.03975391,31.32855797
28127570,8.80977440,-3.04725981,2.95633245,0.56688291,-1.67560339,-0.87536985,45.65916539,12.56211662,26.12540245
28180570,8.88395214,-1.32921302,1.82692015,0.90346968,-1.67865777,-1.51738930,46.11224938,16.78602791,21.38994598
28233570,8.96411228,-0.16211374,0.86021978,0.28038713,-1.45935702,-1.25227368,46.25840473,20.51300812,17.39988327
28286570,9.75015450,-0.45882374,0.86620182,-0.16798794,-0.97921699,-1.10261166,45.73224354,23.23151016,15.00292396
28339570,9.43430138,-0.20219351,0.79740822,-0.19486602,-1.23272610,-1.89307141,44.05144787,27.64542580,12.03595543
28392570,8.66800022,2.90488672,-0.81116694,-0.91018921,-1.27548659,-1.63345361,42.06372452,31.38701820,10.42823791
28445570,8.78106022,2.51844573,-0.86500537,-0.98043871,-1.05496418,-1.16919601,40.33908272,33.38936043,9.31745148
28498570,9.06102085,2.99222493,-1.30169559,-1.00976026,-0.92484999,-0.89064157,38.96521616,35.07015419,8.51359367
28551570,8.70508862,3.57128787,-1.82572365,-0.25106561,-0.81855941,-1.42270505,36.56825590,37.78865623,7.75358200
28604570,7.94417143,4.64267445,-1.85802686,0.68355817,-0.32681289,-1.48195910,34.02514005,40.30254173,6.54048633
28657570,8.19601536,4.60199594,-2.34376979,0.75136423,-0.58826327,-1.41170955,30.44431567,43.18181801,3.60274887
28710570,7.06600475,6.39182758,-2.59920359,0.46547931,-0.33780846,-1.09405971,27.85735274,45.30108070,1.84887600
28763570,7.14377260,6.43729162,-3.24347115,-0.78007489,-0.34513885,-0.40744710,26.05963278,46.10494041,2.21426582
28816570,7.35852766,5.22891569,-1.69651127,-0.87292641,-0.12522738,-0.40378192,25.10961819,46.64571571,3.70505714
28869570,6.93499851,6.86979342,-1.95852542,-1.70920098,-0.57910019,-0.42516220,23.92575360,46.93802834,6.48202419
28922570,7.10070133,6.08135843,-1.84366977,-2.32006621,-0.84421575,-0.28405234,24.10114098,46.74802971,10.66208839
28975570,6.29731131,7.36211729,-1.52781725,-2.36710286,-0.56993723,-0.48747045,23.76498175,45.41800499,15.95293808
29028570,6.60837793,6.66161871,-1.53021014,-1.27670836,-0.25534168,-0.60597831,22.78573609,45.24261665,18.17451095
29081570,6.28056145,8.14157867,-0.19740789,-1.64200568,0.07330383,-0.39584067,21.11955738,43.97105980,21.71148872
29134570,6.03410053,7.50090075,0.77587283,-3.53568792,-1.14842665,-0.10445795,22.21572781,40.63870048,27.79158211
29187570,6.05862713,7.94656467,2.18524528,-3.44405818,-0.87048298,0.01588250,23.66267300,35.12861824,32.77550697
29240570,5.96530676,7.38425112,2.99282289,-5.27970791,-1.72325087,0.34636059,27.53580952,25.99386024,38.43174553
29293570,6.98225641,5.78345203,3.23389959,-4.53139830,-1.68415534,0.64873892,32.40280736,15.00292397,40.27330971
29346570,7.32143879,4.24307299,4.20897532,-3.39946508,-0.70249498,0.30665436,35.25285101,6.46740627,41.06255531
29399570,7.46082067,4.13719034,5.25882578,-0.90041536,-0.37018433,0.18692476,36.26132822,2.66734791,40.47793007
29452570,7.33519793,4.69770956,3.49172664,-1.62795579,-0.97677350,0.02809980,37.75212002,0.75270319,38.00789451
29505570,7.74915648,3.60418892,4.45124865,-1.69942713,-0.68172556,0.00488692,39.71061135,-3.33966732,36.34171486
29558570,8.05782986,2.82771826,5.54596472,-1.08428574,-0.93218035,-0.06475171,40.71908856,-6.83279800,34.57322502
29611570,8.31326389,2.97068930,4.57088947,-2.00363803,-1.77822864,-0.16432275,43.62759590,-8.80590487,29.96930885
29664570,9.11306477,2.10149670,3.38464761,-2.41841555,-1.78678071,-0.17837265,46.43379307,-12.25518894,24.13767814
29717570,9.21834946,1.38544428,4.19521618,-2.00058365,-1.17835903,-0.34086278,47.95381642,-14.56445503,19.06606293
29770570,9.20100212,1.54755807,3.33978248,-2.48133445,-1.68782067,-0.67439520,49.56153393,-14.65214920,14.44753074
29823570,8.92343330,2.17387938,1.86041963,-2.43979573,-1.40987694,-0.44959679,51.08155537,-14.76907349,7.65127182
29876570,9.31645489,2.11585355,2.16729903,-1.70064878,-1.33046448,-0.78129661,52.25080586,-13.07366371,2.87196827
29929570,8.54476929,3.44207549,1.17487597,-1.70675743,-1.44836140,-0.92851514,52.36773014,-11.61210251,-2.24349499
29982570,9.25663471,2.33838606,0.59461641,-1.74646378,-1.23028255,-0.77335542,52.28003598,-9.34668255,-6.45279050
30035570,9.64726257,2.52921343,0.94217396,-2.56929898,-1.44713974,-0.91141093,51.88541508,-5.38585264,-11.94825959
30088570,9.20638561,3.26680112,0.15433706,-2.31456828,-1.43125725,-0.93095863,51.06694126,-0.50423908,-15.82139588
30141570,8.74277496,4.39681149,0.01316052,-2.34205747,-1.26693439,-1.12032676,49.04998684,4.23121834,-19.18298626
30194570,8.49511814,4.28554535,0.52642095,-2.00058365,-1.07695544,-1.36833811,47.48611546,9.79976559,-21.59456158
30247570,7.97467947,5.08295345,0.18963119,-2.30174017,-1.38483155,-1.30480814,44.56299401,15.82139587,-23.78690434
30300570,7.43569613,6.05802870,0.30747771,-2.55524921,-1.39949226,-1.54426730,41.47910118,22.54457855,-23.85998058
30353570,7.22273540,6.76271486,0.04007978,-2.91138387,-1.43308985,-1.28770387,37.28442097,29.56006813,-23.08535481
30406570,6.91585588,6.96849775,0.68494552,-2.57113194,-1.13498759,-1.24738681,34.31745243,35.21631050,-21.78456497
30459570,6.32482862,7.60439062,1.51405859,-1.61085153,-0.68111473,-1.03541660,30.59047178,39.36714363,-19.15375519
30512570,5.62433004,7.57148933,2.21934295,-1.30602992,-0.73853606,-0.96272361,28.04735565,42.15872765,-17.88219738
30565570,5.67697191,7.94716215,2.14217448,-1.81854582,-1.24249983,-1.02442098,24.62730313,45.66647148,-15.30984974
30618570,5.55015230,7.48714209,2.12662101,-1.36894894,-1.03114045,-0.83260930,21.58725643,47.68342781,-13.36597395
30671570,5.23788929,8.24686337,2.47178578,-1.08123147,-1.02869701,-0.92240649,18.45951653,49.64191627,-11.77287245
30724570,4.99860668,7.89511824,2.49272299,-0.72998393,-1.13804185,-0.75502944,16.07717133,51.70271873,-10.00438374
30777570,5.04586506,7.96750116,2.47597313,-0.44654247,-1.27854085,-0.76663584,13.03712368,52.36041832,-9.85822761
30830570,4.03310251,8.93120956,4.21435881,-0.91263264,-1.62062550,-0.61758476,10.14323330,53.01812172,-10.77901101
30883570,4.64686155,8.28096104,1.68035972,-0.93523467,-1.86558235,-0.41661006,8.76936817,53.92429161,-9.90207446
30936570,4.52363157,8.16550732,1.92263305,-1.08489656,-1.76234615,-0.55649823,6.91318417,55.02046013,-7.19818676
30989570,4.36630344,8.71226788,1.49730873,-1.58152997,-1.86802590,-0.52962017,4.07775593,55.53200722,-4.46506787
31042570,4.81435919,7.92203760,1.30229366,-1.92483628,-1.61451685,-0.73853606,2.77696896,55.66354942,1.48348522
31095570,3.62991214,8.72124004,3.12263370,-1.68659890,-0.98960167,-0.93279117,0.27769757,55.41508675,4.99123192
31148570,4.62891531,7.00259542,3.17407942,-2.54425359,-0.99876463,-0.62308252,-0.71616459,54.45044899,11.55364036
31201570,3.92004180,7.47398186,3.53659201,-2.68719602,-0.69699723,-0.80389863,-2.10464763,52.43350029,19.84069061
31254570,3.83808756,7.43270493,5.61057138,-2.67620063,-0.29260448,-0.66462141,-2.87927532,49.26191521,27.68927193
31307570,3.46061993,7.10488844,5.99162769,-2.43002200,-0.32864550,-0.71532321,-4.15083217,44.89184380,33.50628471
31360570,3.68913460,5.44785881,6.87996387,-1.93338847,-0.06414085,-0.64263022,-5.46623897,40.71177864,38.49020958
31413570,3.12921381,5.89651299,7.42732191,-2.10748506,-0.29504791,-0.61330873,-5.86085796,36.67786980,41.89564323
31466570,3.29790783,4.57208586,8.50708294,-1.55709541,-0.06902777,-0.33108896,-5.91931820,32.29318809,44.19029808
31519570,3.63529563,4.13539553,7.73120975,-1.98592281,-0.50640726,-0.01466077,-4.38468075,27.51388359,47.50803947
31572570,3.69511628,3.21834636,8.54177856,-2.46850634,-0.32314771,0.11911872,-3.20081615,22.04764557,49.84654045
31625570,4.05882549,2.20618272,8.93360329,-2.05311823,-0.12217305,0.07452556,-2.35311031,16.27448082,51.55656624
31678570,3.94935393,0.41515473,9.98764133,-1.67071640,-0.21013764,0.03298672,-1.05232143,11.11517048,52.06810951
31731570,4.46680164,0.22313070,9.34457016,-0.89247411,-0.71471232,-0.17654005,0.33616162,7.62203979,52.37504005
31784570,4.60618353,0.06340980,9.52104187,-0.22418755,-1.19424152,-0.45875978,2.90850735,6.61356258,53.39813042
31837570,4.56490707,0.16331016,9.19681454,0.81122899,-1.25960410,-0.53023100,6.47471714,7.98742962,52.93042946
31890570,5.67039156,1.89511561,7.62951517,1.34695792,-1.73058116,-0.26816982,10.01169300,11.71441078,51.76118278
31943570,5.98265505,1.43689001,7.41715193,1.40865529,-1.33351874,-0.04764749,13.92867756,14.60830116,50.28500175
31996570,6.44506788,2.52861547,7.02831841,2.40314388,-0.98349303,-0.07635815,16.32563782,20.00146103,47.55188560
32049570,6.74476910,3.61555505,6.45703220,2.60106421,-0.54672438,0.07513642,18.12335682,26.05232429,44.48261070
32102570,7.28853750,3.68315220,5.75294399,3.85150528,-0.36407569,0.00610865,19.05875588,33.30166817,38.57790184
32155570,6.81296444,5.24387121,3.06939340,5.63095570,0.38545597,-0.10629055,18.31336022,42.75796318,28.74159813
32208570,6.42233610,5.33778906,-1.02053893,7.59672022,1.32069063,-0.77274454,15.50716305,50.46039009,13.74598121
32261570,7.47697258,6.11605453,1.55533469,2.29379916,-0.28710666,0.26267207,15.21484947,52.74042702,2.91581535
32314570,6.55154896,6.81356192,-0.72681987,4.05064726,-0.48197266,-0.49113566,14.49868489,52.47734642,-6.78894949
32367570,6.63888693,6.61017227,-2.86061931,3.16122746,-0.47891834,-0.18631390,13.68021298,50.94270515,-16.08447743
32420570,6.53659344,6.20937443,-2.97726989,3.85028338,0.09712757,-0.05558874,13.12481976,46.89418602,-24.50306893
32473570,6.52462959,5.73739052,-4.36869574,3.66824555,-0.27977628,0.40194932,13.41713047,41.19409370,-31.95702934
32526570,6.32841778,3.53001142,-5.52801847,4.02987814,0.10934488,0.47769663,13.85559941,33.84244347,-39.95176888
32579570,6.34516716,3.32602334,-5.68474817,3.45871902,-0.19730946,0.58826327,14.26483441,25.32154465,-44.84799767
32632570,6.72442961,1.10608232,-6.50249577,3.60105062,-0.46059239,0.69821894,15.08331013,15.58754730,-48.34112740
32685570,6.34337234,0.69930238,-5.85164785,2.90894008,-0.47525313,0.79962260,14.84945965,7.81204224,-50.94270897
32738570,6.29192734,-1.68753827,-8.19122982,2.05250716,-0.72082096,0.67256260,13.84098339,0.67962551,-51.58579445
32791570,5.30309343,-2.64167619,-6.73041201,3.17955351,-0.83016580,0.47158796,11.19555760,-6.77433538,-51.22040367
32844570,5.56690168,-3.88355112,-6.44865704,1.87902153,-0.95233893,1.01525795,8.75475025,-13.17597294,-50.53346825
32897570,4.45244503,-4.78265429,-5.08056068,2.69391584,-1.24677598,1.17591548,5.48085499,-19.10991001,-48.29728127
32950570,2.93240428,-6.43549728,-7.62054157,2.45873260,-1.79960907,1.41598558,-0.55539226,-25.29231262,-46.66032982
33003570,2.95573401,-6.53838778,-5.64526653,1.91811681,-1.63467538,1.61879289,-6.67933178,-28.93159866,-42.18795586
33056570,1.17009032,-7.89511824,-5.52742052,2.05678320,-1.72935951,1.64811432,-13.30020427,-30.75855064,-37.49634552
33109570,0.47736815,-8.26899719,-5.98205662,1.63223195,-1.57481050,1.31152773,-19.11721706,-32.95089150,-32.77550316
33162570,-0.35952160,-8.42153931,-3.39122772,0.39706242,-0.96272361,1.24372160,-23.58959102,-32.20549393,-31.73779488
33215570,-1.59720910,-8.90249729,-4.28195620,1.92972326,-1.30175376,1.08917272,-27.24349117,-32.26395798,-26.92926026
33268570,-0.95772731,-9.03828907,-4.30588436,1.05557513,-0.71104711,1.20645881,-30.76585674,-31.91318512,-23.45074463
33321570,-2.69192553,-9.58564758,0.01076770,0.64079762,-0.90896749,1.14842665,-33.46974468,-29.98392296,-20.89301300
33374570,-3.14955306,-9.41037273,-2.96889472,2.32861805,-1.40865529,0.97494090,-36.84595012,-30.04238510,-14.28675747
33427570,-3.61256385,-9.38465023,0.74715889,0.83444190,-1.30114293,1.01586890,-39.31598949,-28.65390205,-10.73516417
33480570,-4.57866621,-8.51306438,0.08733803,2.09343505,-1.74340940,1.07634449,-41.27447796,-26.47617722,-3.35428143
33533570,-4.94417000,-8.39701271,0.38943192,1.22906077,-1.86558235,1.20462620,-43.49605083,-23.64074898,2.84273720
33586570,-5.92044163,-8.31326389,3.39182591,1.64506006,-2.72751307,0.83566362,-43.74451732,-20.79070473,11.52440834
33639570,-5.59980345,-8.34138012,4.28853607,2.15452170,-3.25957680,0.82405716,-41.97603130,-17.12218761,19.86992264
33692570,-4.88434935,-6.71426010,3.80398989,1.29259086,-2.53325796,0.94867373,-39.49137401,-13.14674091,27.73312187
33745570,-4.60438919,-6.80339289,6.64367199,1.17102873,-2.48866510,0.88208944,-36.96287822,-10.76439714,33.76936531
33798570,-4.10787821,-5.86899567,7.16291475,0.93645644,-2.23882103,0.77763146,-32.91434765,-6.40894520,39.65946007
33851570,-3.47437835,-5.91625404,8.49033260,0.20830503,-2.14658022,0.80328780,-29.04121685,-3.90967608,42.50950050
33904570,-3.16749907,-4.99920464,7.37228727,0.59681529,-2.20094752,0.42210788,-23.99882793,-2.66734922,45.75416756
33957570,-1.87058926,-5.31804848,8.68893719,-0.00671952,-2.07816362,0.57543504,-18.92721462,-1.62964106,48.23882103
34010570,-0.84945208,-4.54456854,8.18106079,0.54428095,-2.19300604,0.45631632,-13.00789165,-0.44577646,50.62116813
34063570,-0.22492534,-4.69292355,8.14157867,1.09467053,-2.22354960,0.36529744,-7.17626095,1.08886242,52.40426826
34116570,0.60358953,-5.07098913,8.71346378,0.70677108,-2.04823112,0.52839845,-1.43233013,3.67582512,53.20812797
34169570,0.65443701,-2.69850564,9.08913708,0.12400565,-1.52716303,-0.00549779,3.30312825,3.95352173,53.26658821
34222570,2.06380963,-4.05703068,8.57408237,1.20951319,-2.70857644,0.11667527,10.20169735,5.32738876,52.50658226
34275570,3.21415901,-3.24706030,7.45723200,1.17225039,-2.28707933,0.38851029,16.73487377,6.94972229,50.67962837
34328570,4.34237480,-3.48036051,8.49093056,0.71715575,-2.09710026,0.58459800,22.47880841,7.57819366,48.18035698
34381570,5.67457867,-3.16032052,7.62472916,0.96761054,-2.23515606,0.55894172,27.85735274,9.02513790,44.55568504
34434570,5.23609352,-2.92881489,5.86540604,1.34634697,-1.79777634,0.66156709,32.82666004,9.98976898,41.45717811
34487570,7.26819944,-4.20957327,9.54855824,0.06902777,-2.08366132,0.69882983,37.44519282,9.59514713,37.01403236
34540570,6.55693245,-2.82173610,5.34855652,1.12154853,-2.71590662,0.13439035,42.51680851,10.29669666,30.80240059
34593570,8.10508823,-2.54775810,4.38544559,0.60903263,-2.11909151,0.32192597,46.19994259,10.58900833,24.53230095
34646570,7.67796993,-3.39960289,5.57108927,0.54977870,-2.45384574,0.26816982,48.65536595,9.60976219,18.62759590
34699570,8.31745148,-2.67996144,2.57527542,0.62674773,-2.32495308,0.22540927,50.61385632,9.71207237,11.65594864
34752570,9.10110092,-3.17348123,2.17507601,0.20036380,-1.80205250,0.17287487,51.43233013,9.06898594,7.09587860
34805570,8.85164928,-3.49112821,1.67617226,0.59131759,-2.02135301,-0.21074851,51.46156216,9.24437237,1.73195076
34858570,9.47976494,-2.21515560,1.54875457,-0.64812797,-1.75012887,0.09346238,51.40310002,9.44899082,-3.60274649
34911570,9.86560822,-2.82233429,0.47138608,-0.50335294,-2.43857408,-0.25595254,50.65770245,10.13592434,-9.17129396
34964570,9.09272671,-1.91844559,-4.29092932,0.88941979,-2.20339084,-0.65362579,48.90383053,10.88132000,-15.89447403
35017570,8.73081112,-2.82532525,-1.84008062,-0.77579886,-1.74096596,-0.26206118,46.97456932,12.28442001,-20.32300377
35070570,8.63809013,-1.80598295,-4.15154743,-0.63285637,-1.29564512,-0.19181168,44.27068234,13.83367348,-23.84536553
35123570,8.34078121,-2.32522559,-3.73220539,-0.70921457,-1.28220618,-0.48747045,42.29757500,15.71908760,-26.62233162
35176570,8.08893681,-2.14636183,-5.43410063,-0.71226889,-1.06412721,-0.59742624,39.78369046,18.07220077,-28.58082390
35229570,7.83111048,-0.98763752,-4.27597427,-0.20219639,-0.91446525,-0.62980205,37.88366080,20.26454353,-29.69161034
35282570,8.25344372,-0.22492534,-3.91465783,-0.14049901,-0.89003062,-0.66767573,35.29669810,21.62379456,-31.44548226
35335570,7.68455029,-0.91106719,-6.77886677,0.24556783,-1.05679691,-0.76846844,32.47588539,22.51534462,-33.57936096
35388570,7.98066235,-0.39062831,-5.22113895,1.24372160,-0.71410143,-1.37017083,30.19585032,22.70535088,-37.40864945
35441570,6.65743113,-0.09332009,-7.40399170,1.62123632,-1.17225039,-1.79044604,25.73808956,22.58842277,-39.92253494
35494570,6.06042194,-0.35413775,-7.45424128,1.24616504,-1.12277031,-1.73730075,21.54340935,22.51534462,-42.52411461
35547570,5.62672234,-0.10289138,-6.80997324,1.47646129,-1.51250231,-1.63650799,16.42794609,21.28763580,-45.53492928
35600570,5.88335276,0.23449662,-7.96570635,1.27243221,-1.30664074,-1.56564760,11.64864064,19.47529983,-48.04881478
35653570,3.90329194,-0.75134623,-8.53938580,1.53754783,-1.32618845,-1.76723313,7.33703709,16.49371529,-50.48962212
35706570,5.89471865,-0.40917265,-7.42672300,1.28281701,-0.91263264,-1.45874619,3.33236218,13.33674240,-51.13270760
35759570,3.58624291,-0.45044884,-8.29531860,1.96393180,-0.80817467,-1.71225524,0.96463299,8.49897575,-52.93042946
35812570,3.68973255,-1.52123702,-8.70389271,1.96270990,-0.57115901,-0.85154617,-0.73078060,4.28968048,-52.78427315
35865570,3.37567449,-1.83409846,-8.77687263,1.20035017,-0.77824229,-1.10688782,-2.98158169,0.37269783,-52.81350517
35918570,3.82552505,-2.60458732,-8.52861786,1.99569678,-0.49480084,-0.49357909,-4.34083461,-3.58813262,-52.38965035
35971570,3.03529572,-3.45104837,-7.58225679,1.61512768,-0.59559363,-0.62552601,-5.24700451,-8.80590487,-51.51271630
36024570,2.77746868,-3.65683126,-8.35992527,1.67010558,-0.69027770,-0.25839600,-6.85472011,-13.32212830,-49.77345848
36077570,1.75393903,-4.48953342,-7.33699226,2.23149061,-0.97616267,-0.03909538,-9.00321483,-18.32066727,-47.31803703
36130570,2.63330126,-5.86660290,-7.36869717,2.32984018,-1.03297317,0.38423422,-11.26863384,-23.21689606,-43.83952141
36183570,1.93459713,-7.02472878,-5.37368155,3.69512367,-1.51494575,0.35857788,-14.11867809,-29.04852486,-38.05173874
36236570,0.95533442,-8.17268562,-6.77587557,3.36647820,-1.17713737,0.74769902,-18.13796901,-35.02630806,-30.42238999
36289570,0.08015955,-8.06381226,-3.19142723,2.19422793,-1.14476144,0.86498517,-21.35340404,-37.14557076,-24.78076554
36342570,-0.30029923,-8.91326427,-4.02831697,2.87289906,-1.13498759,0.58093286,-23.15112591,-38.98713875,-16.34755802
36395570,-1.33758771,-8.72004414,-1.12642121,1.38299894,-1.48440242,0.97555178,-26.62964153,-38.84098244,-12.09441590
36448570,-1.62951219,-9.60598660,-0.65443701,1.08795094,-1.68782067,0.57910019,-28.67582607,-38.09558678,-7.18357110
36501570,-1.68753827,-10.52363491,-0.72921270,1.79899812,-2.13008714,0.37812558,-29.88891887,-37.43788719,-1.38117409
36554570,-2.68355060,-9.92961597,-0.15792631,1.52105439,-1.35489905,0.29871312,-30.53200435,-37.37942314,6.35048294
36607570,-2.08355021,-7.92921591,2.80797744,2.50882339,-1.73546815,0.25961775,-29.88891887,-35.53785706,12.89827728
36660570,-2.63748884,-10.03190899,1.08275235,1.21134567,-1.89307141,0.62980205,-30.00584697,-33.40397644,18.02835464
36713570,-2.01296210,-9.99302578,4.45962286,1.42942464,-1.54548907,0.28099802,-28.83660030,-30.62701225,24.16691017
36766570,-2.06022024,-8.89172935,4.04925394,0.93156946,-2.35183096,0.03543018,-26.17655849,-30.13007927,28.58082771
36819570,-2.39880466,-9.58684349,4.24785852,0.55833083,-2.49416280,-0.02199115,-22.94650554,-28.52236366,33.81321525
36872570,-0.32183465,-9.14297581,5.88574553,0.40317106,-2.90099907,-0.26022857,-17.30488109,-27.49926949,37.71558189
36925570,-0.76211405,-9.28953552,4.58165741,0.68416905,-2.44162846,-0.42455134,-11.04939937,-27.71850395,40.30254555
36978570,1.47816622,-8.95214748,5.94078064,1.08428574,-2.69330502,-0.60842174,-4.56006908,-25.92078400,43.24028206
37031570,0.78424764,-9.62572765,4.89152765,1.30297554,-3.01767421,-0.80145520,3.81467533,-23.07073975,45.53492927
37084570,2.51366019,-8.01416111,5.41316319,1.07756627,-2.41475034,-1.19973922,10.84478283,-19.79684353,46.71879768
37137570,4.78863621,-7.03489828,5.21994305,0.98288214,-2.08854842,-1.49478722,18.19643498,-16.74218082,45.97339821
37190570,5.19900560,-5.99162769,4.35912514,0.73242742,-1.48990023,-1.12887895,23.47266960,-13.21981907,45.00876808
37243570,6.27876663,-6.76630402,5.44965363,0.37934732,-1.41354215,-1.08611846,27.25811291,-10.88132191,44.11721992
37296570,7.36211729,-4.84247494,4.02831697,0.62308252,-1.40621173,-1.65300131,31.65741128,-7.15434146,42.26103782
37349570,7.11745119,-3.78185630,2.89651179,-0.27061331,-1.07267928,-1.22600651,34.08360243,-3.86582923,40.27330971
37402570,6.37388134,-3.43609333,5.06081963,0.38301250,-1.14720500,-1.55159771,36.94826222,-1.13271046,38.09558678
37455570,8.12542725,-4.46919489,3.80040050,0.37873644,-1.21073484,-1.25044119,39.15521908,2.66734791,35.87401390
37508570,8.94676495,-0.52701920,2.86480689,0.34758231,-1.07817709,-1.62734497,40.70447350,6.94972229,33.55013084
37561570,8.92941570,-1.92323124,2.12781763,-0.16249016,-1.00792766,-1.45874619,41.71295071,9.14206314,31.37240791
37614570,8.49751186,-0.46181476,0.94755781,-0.34697145,-0.96272361,-1.91139734,42.09295655,13.14673996,29.01929283
37667570,9.14177895,0.89970136,1.46500576,0.34697145,-0.43921208,-1.58458447,41.80064392,17.23911095,27.68927193
37720570,9.61077213,0.84586281,1.56251323,-0.00916298,-0.70066243,-1.72813773,40.85062981,20.43992996,26.28617668
37773570,9.82074261,2.87078905,0.94695961,0.23640485,-0.72815138,-1.87352371,39.60830212,24.26921844,24.91230583
37826570,9.92183971,2.65663123,0.66640115,0.37568212,-0.72509706,-1.73119199,37.97135496,28.88775063,22.39842033
37879570,7.73539734,4.95015192,0.73040915,-0.49968776,-0.72204274,-1.72508335,35.93978501,32.22010994,21.98918533
37932570,8.72004414,4.26759911,-0.30029923,-1.39460540,-0.74769902,-1.03969264,35.42823839,32.83396721,22.13534164
37985570,8.64287472,4.31724977,0.66161549,-2.10809588,-0.05497787,-0.38301250,34.22975874,31.54779243,24.50306892
38038570,8.20977402,5.64586544,0.32362923,-0.99571031,0.22907446,-0.66095620,33.33820629,31.31394005,27.16311073
38091570,9.23749256,4.96869612,1.23888385,-2.10015488,0.23945917,-0.40439278,32.08126390,29.61853218,29.80853462
38144570,7.81436062,4.34656239,1.91665089,-2.21744084,0.67806041,-1.02319932,30.97047761,27.07541656,34.33937263
38197570,7.62652445,5.28514719,2.37368011,-1.24677598,0.97005403,-1.30725157,27.30195952,26.21309471,37.68634987
38250570,6.91705227,5.16789913,3.59760880,-2.15452170,1.17347217,-1.61390603,23.48728562,24.44460678,41.13563728
38303570,5.54536676,5.50947428,4.64626360,-1.07145762,0.99937552,-1.88696265,18.59105683,24.16691017,44.17568016
38356570,5.04466867,6.20937443,4.68634319,-1.46729839,1.04763389,-2.52531695,14.11868000,22.85150337,46.41186714
38409570,2.89471722,7.10249567,6.10050154,-2.14596939,0.98837996,-2.76538706,8.28705120,19.31452751,48.25343895
38462570,3.02811718,4.95074987,7.56490850,-1.51861095,1.27426493,-2.57540774,3.27389813,16.56679344,49.05729484
38515570,-0.17706887,9.23091221,5.83489799,-2.15146732,0.70310587,-2.58579254,-1.19848156,11.62671661,50.43115806
38568570,0.15972091,5.69013214,9.71485996,-1.89001703,0.57115901,-2.17956710,-3.14235210,4.99123001,51.07424354
38621570,-0.39481577,5.44845724,9.39482021,-1.94010806,-0.62308252,-1.59863424,-2.17772579,-0.28500509,50.34346962
38674570,0.06939186,2.80438852,10.54516888,-3.71833658,-0.85460049,-1.19790673,1.00847721,-8.92283011,49.90500068
38727570,0.46420762,1.01694965,10.70728302,-3.10136271,-0.93279117,-1.50639367,5.26162052,-18.51067066,46.06109428
38780570,0.04965108,1.06660068,11.44726372,-1.61573851,-1.09344876,-2.01402259,9.25168324,-22.73458099,44.43876457
38833570,0.80877405,-0.96311110,9.15613556,-3.44589090,-2.50699091,-2.31273580,17.43642330,-27.33849907,38.60713386
38886570,3.29850602,-3.17707038,10.14496994,-4.21130466,-2.54914069,-2.31762290,25.86962986,-32.03010750,29.73545646
38939570,4.46201611,-3.05623293,8.73499870,-3.21498370,-2.48927593,-2.80387139,34.41976142,-32.24934197,20.13300323
38992570,6.11126900,-2.65543485,7.53021288,-3.01706338,-1.95965564,-2.53875589,39.76907444,-30.15931129,12.50365448
39045570,7.39023256,-4.14855623,6.26440954,-2.32800722,-1.89184964,-2.72751307,44.37299252,-25.62847137,5.04969311
39098570,6.63828802,-0.86261255,4.85683155,-1.64506006,-1.79044604,-3.32555032,48.68459606,-18.48143864,-0.56270027
39151570,8.13499928,-1.19700956,3.00359058,-1.91017556,-1.68293369,-2.95842052,50.54078007,-10.04823208,-7.31511152
39204570,8.83729172,-0.07776674,2.70089865,-1.78372645,-1.20035017,-2.94375944,50.46770191,-1.20578837,-11.12978554
39257570,8.74816036,1.41056895,2.04945254,-1.60779727,-0.91568702,-2.80020618,48.74305821,7.68050194,-13.96521378
39310570,8.82951546,2.87258339,2.57407880,-1.34023833,-0.64324111,-2.39825678,46.69687271,15.38292885,-15.25138760
39363570,8.81994438,1.76949239,2.05663109,-1.32007968,-1.00059724,-2.58640337,44.10991097,21.81379509,-16.04063082
39416570,7.46500826,6.20758009,1.08634138,-2.01952052,-1.13804185,-3.25652242,38.51213217,30.86086082,-16.23063326
39469570,6.91465902,4.54097891,3.76211548,-1.03724909,-0.84910268,-2.86434722,33.41128445,36.73633385,-15.99678326
39522570,6.66161871,6.71545696,1.98006082,-3.54729438,-2.29990768,-3.25530076,24.61268759,45.35954475,-13.57059241
39575570,5.71705151,8.68295479,0.87756771,-2.37870932,-1.57175624,-2.43979573,16.13563443,50.63577843,-7.75357986
39628570,3.95892501,9.93858910,1.64805663,-0.93767816,0.06780604,-2.07633090,10.27477551,53.64659309,-4.61122370
39681570,4.89092922,7.00977421,2.07517552,0.39278635,-0.69577551,-1.86191726,5.26162052,54.43583488,-5.75124145
39734570,3.24466777,9.05623531,5.01834726,-1.69881618,-1.61634934,-2.59434462,-2.03156948,55.26893043,-1.71733284
39787570,1.81675065,9.06760120,2.99102831,-1.70614660,-2.92115736,-2.68414187,-9.61706829,55.37123299,3.45659256
39840570,2.60698056,9.72323513,1.88075852,-2.13375211,-2.10443068,-2.62549877,-14.74714946,53.29582024,9.60976410
39893570,0.14656039,11.33838940,3.92363095,-1.48806775,-1.39704883,-1.87718880,-19.39491176,50.67962837,15.32446670
39946570,0.92422777,10.68814087,3.59880543,-0.14844024,-0.66462141,-0.06291912,-20.43262005,49.58345604,18.75913429
39999570,2.90249395,5.22891569,4.97766924,1.05557513,0.49846604,0.54733527,-19.45337200,50.50423622,16.72756576
40052570,1.17188489,8.08594608,4.22811747,-0.88758713,-1.41903996,-1.34268177,-20.59339046,49.78807259,18.37913132
40105570,1.22871435,8.97188854,6.66281509,-2.95536590,-1.58336270,-0.96394533,-21.73341274,46.44109917,24.41537666
40158570,0.81475610,8.29471970,5.53998280,-1.21867609,-1.19912839,-1.33596230,-22.04033947,42.84565926,29.06314277
40211570,-0.31106696,8.14217758,7.40279484,-1.59557998,-1.72447252,-1.55953896,-22.30341625,38.69482613,33.98859978
40264570,1.04865456,6.88594532,6.87158871,-3.19238162,-2.08732653,-1.50578284,-20.00876903,32.27857399,40.27330971
40317570,0.69810599,5.36351204,8.65424156,-2.17345858,-1.91628420,-1.40498996,-17.31949520,24.85384369,45.59339714
40370570,1.50508547,5.51126862,7.92742157,-2.07694197,-1.96576428,-1.21440005,-13.75328731,18.42297554,48.92575264
40423570,2.13379955,4.10668230,9.17886829,-1.89001703,-1.74524200,-0.81978112,-8.97398281,11.24671173,51.45425606
40476570,2.42991138,3.72323203,8.43290520,-1.38116622,-1.48806775,-0.81489420,-4.35545253,6.94972229,52.65273094
40529570,3.42293262,2.94556475,8.88933563,-2.93398571,-1.69881618,-1.07756627,-0.08769321,0.19731045,52.30195808
40582570,4.40578461,1.27776730,8.45264530,-3.52896857,-1.28709304,-1.48134816,6.22625065,-9.68284178,50.65039635
40635570,3.75374055,0.74416786,9.42054272,-2.14719152,-1.02136672,-0.74342299,9.52937794,-16.18678856,48.80882835
40688570,4.18325186,1.13300157,8.88754177,-1.47401786,-1.20584798,-0.44593161,13.34405232,-19.19760323,46.87956810
40741570,2.89651179,2.54835629,8.80917645,-2.51554298,-1.19973922,0.55527651,16.04794121,-25.61385536,42.94796943
40794570,7.39023256,-2.68175602,7.46321392,-0.61575216,-0.99571031,0.00427606,17.81642914,-29.82315064,39.77638054
40847570,6.70169783,-2.67218447,6.89432049,-0.83749622,-1.89612567,0.81306165,19.58491802,-31.79625893,36.42940712
40900570,6.57368183,-2.96590352,6.42173767,-0.77335542,-2.40314388,0.69394290,22.23034382,-35.04092407,32.23472786
40953570,6.40319395,-3.77288294,5.55912495,-0.71898842,-2.23821020,0.77885318,24.93423081,-36.59017754,28.18620491
41006570,7.32801962,-4.72642279,5.01236534,0.15515977,-2.42818928,0.76724672,26.87810707,-38.32943535,25.08769417
41059570,7.31964445,-4.57627344,4.00199604,0.02321288,-2.30418348,1.03847098,27.43350005,-38.94329262,22.44226837
41112570,7.41416121,-5.18883610,1.58943236,-0.99082345,-2.08732653,0.45204028,28.07658696,-40.47793007,17.76527405
41165570,8.17807007,-4.98963308,2.81336117,-0.64568460,-2.03723550,0.40194932,29.07044840,-41.57410240,14.35983848
41218570,7.84427118,-5.34616375,0.24287151,1.03419483,-1.45263755,0.52962017,28.95352340,-42.42180824,12.64981079
41271570,6.99900627,-5.24925470,0.45523453,-0.05131268,-1.59435833,1.09100521,27.97427750,-43.38643837,11.67056465
41324570,6.34098053,-5.34317303,0.50847483,0.53756142,-1.44225276,1.66888380,25.31423664,-45.47646904,9.15667915
41377570,6.39900637,-7.38784027,-0.18903300,1.16186571,-1.59435833,2.35488558,20.62262631,-46.92341423,9.44899368
41430570,4.29870605,-7.31665325,-0.37567312,2.42513490,-1.61451685,2.13130879,15.90178490,-47.47880745,13.57059479
41483570,3.18664145,-8.28993416,0.48035917,3.68718266,-1.88757360,2.63466191,11.13709545,-45.78339577,19.69453430
41536570,2.93898439,-10.30528927,-0.20937198,3.25407910,-0.81306165,2.20033669,6.08009625,-42.48026848,27.44080543
41589570,2.16969204,-10.06720352,3.65443850,3.66274810,-0.46425757,1.92911243,2.14849758,-37.33557320,34.58784294
41642570,1.45483613,-8.52263546,3.82014132,3.67252183,-0.31948251,1.69698370,-0.95001507,-29.63314819,41.42794990
41695570,0.87696952,-9.01854897,6.25424004,1.22295213,-0.27122414,1.80632854,-3.44928264,-25.39462280,44.00029564
41748570,-0.20697917,-7.53081083,6.45045185,2.08121777,-0.24007004,1.74463105,-5.64162349,-20.76147461,46.92341423
41801570,-0.33858442,-6.82313395,7.08634424,1.71469867,-0.09285152,2.01829863,-7.17626095,-14.43291473,49.21806907
41854570,-1.35613215,-6.60777998,7.79282570,1.50944805,-0.51801372,1.75501585,-8.03858471,-9.63899517,50.35808372
41907570,-1.39980125,-5.57228613,7.93759060,0.48319441,-1.18874383,1.84725642,-7.04472255,-7.00818515,51.45425606
41960570,-1.85563385,-6.32303429,9.25065231,0.30298916,-1.44836140,1.77150917,-3.69774532,-5.99970818,52.50658226
42013570,-1.41056895,-6.10648346,8.56092072,0.14477505,-1.89429307,1.39155102,0.42385388,-5.09354043,52.66735267
42066570,-1.11625183,-6.12203646,9.10768127,-0.54550260,-1.80816114,1.38360977,4.96930790,-7.03741646,52.27272987
42119570,-0.82672024,-5.58664274,8.00159931,-0.03420845,-2.33106184,0.99326682,10.31862164,-7.89973760,51.27886772
42172570,-0.12442677,-6.96311378,9.11306477,-0.31826076,-2.26630998,0.53450710,15.30254460,-9.44899178,49.84654045
42225570,0.11485548,-6.45942450,8.90189838,-1.07451200,-2.72751307,-0.51862454,22.84419918,-11.23209620,43.41566658
42278570,1.97108769,-5.46520710,6.50309372,-0.36835176,-3.47032547,-0.57971114,31.07278688,-12.02133894,42.33411217
42331570,3.41695070,-6.77348280,5.91984320,0.28038713,-3.39396739,-0.48319441,38.29289818,-12.32826710,34.57322502
42384570,4.08395004,-6.55453968,5.77627373,0.22785273,-3.26079869,-0.85337871,44.02221775,-10.82285976,27.89389229
42437570,5.57527685,-5.82293367,4.82871628,0.24556783,-3.52530313,-0.68844515,48.69921208,-8.30897450,18.71528816
42490570,6.14596462,-5.45623350,3.22552514,0.26633725,-3.74216032,-0.82833326,52.23618794,-6.48202324,8.79129028
42543570,7.20897675,-4.90109921,0.96789670,0.49907690,-3.52224898,-0.38973203,52.87927723,-4.94738433,-0.38731289
42596570,8.41555786,-4.49431944,-1.18085802,-0.36346480,-3.71711493,-0.46853364,51.41771603,-3.35428298,-11.77287245
42649570,7.25085068,-4.22393036,-3.08315206,-0.27061331,-2.93154216,-0.75197512,49.28383732,-1.23501968,-19.57760811
42702570,7.12223625,-4.13599396,-3.75972271,-0.23090705,-2.45812154,-0.68905598,45.24992848,0.92809057,-26.19848061
42755570,7.19043207,-3.97567487,-3.39840651,-0.49418998,-2.10565233,-0.46792275,41.87372208,2.76965761,-31.09470749
42808570,6.35055113,-3.48813725,-5.70209646,0.06780604,-2.47950196,-0.77946407,37.48903942,5.00584602,-36.00555420
42861570,5.47298336,-2.86899447,-7.21017313,0.85704392,-2.27913809,-0.65118229,32.05203271,5.42969799,-40.52177620
42914570,6.84706211,-3.77647233,-5.29711151,0.04398230,-2.46728468,-0.13072516,27.17041922,5.57585430,-43.22566414
42967570,4.13120794,-3.31405926,-7.53499842,0.50457466,-2.63466191,-0.27977628,20.75416661,5.37123585,-47.08418465
43020570,4.24426937,-4.03011179,-7.39322376,-0.36835176,-2.39947844,0.37568212,14.33791447,5.89739799,-49.59807015
43073570,2.34376979,-4.30289364,-8.55075169,0.76419240,-2.51065612,0.06780604,7.45396138,4.04121590,-51.16193962
43126570,0.89431745,-3.96490717,-8.42273521,0.10201450,-2.36954618,0.11972959,0.70155049,3.04735422,-52.03887367
43179570,0.15014961,-4.35314274,-7.59242678,0.43127084,-2.81853223,-0.04092797,-5.67085552,3.10581684,-51.42502022
43232570,-2.26719952,-4.09890509,-9.99541855,1.38422060,-3.10563898,0.00183260,-13.91405773,0.31423521,-49.93422890
43285570,-2.60518551,-5.94018221,-6.27577543,0.22907446,-3.04638505,0.64018679,-21.54340648,0.88424349,-47.84419441
43338570,-3.43070936,-5.06620359,-7.16470909,0.97433001,-3.54729438,0.25717425,-29.84507274,-0.43116093,-42.56796074
43391570,-4.93998241,-5.64287424,-6.02094030,0.49357909,-3.38480425,0.20402899,-37.41595745,-0.73808885,-36.34171105
43444570,-6.04845762,-5.54596472,-3.71964288,1.74402022,-3.73360848,0.01527163,-42.34141826,-2.90119910,-28.24466324
43497570,-8.10389233,-6.13459921,-5.97607470,1.47890484,-3.28401136,0.10506882,-47.01841259,-4.59660970,-19.88453579
43550570,-7.00439024,-6.87996387,-0.95473629,0.25839600,-2.97369194,0.20647244,-49.34229564,-3.90967608,-11.55363846
43603570,-8.59202862,-5.33420038,-1.46739841,0.70005155,-3.30783510,-0.05803220,-50.35077953,-4.56737849,-1.92195177
43656570,-8.02492905,-6.49352312,0.70648092,-0.32986721,-2.66948104,-0.02015855,-49.70768261,-4.46506922,4.71353531
43709570,-7.93160868,-5.90309334,0.47318065,-0.01404990,-2.50515819,-0.29382616,-48.80152416,-5.35662144,11.80210495
43762570,-8.64048195,-6.30568600,3.48095894,-0.37323865,-2.40131140,-0.64079762,-46.47763347,-6.49663901,17.64834785
43815570,-6.24706221,-6.30269480,3.86440849,-0.93889982,-1.92666900,-0.31093040,-43.94913768,-8.11897159,23.18766212
43868570,-4.83170700,-8.27258587,5.92462873,0.03787364,-2.65726376,-1.02381015,-39.98830700,-10.73516560,28.14235496
43921570,-5.61475849,-7.47158909,5.63689137,0.25106561,-2.29929662,-0.24740042,-34.88746166,-11.01286221,34.29553032
43974570,-4.39561510,-6.50010252,7.79701281,1.21073484,-2.73178935,-0.56016338,-30.13738537,-10.23823500,39.46945381
44027570,-4.16530609,-6.25124884,5.04945421,0.24984388,-2.16429543,-0.08979719,-24.61268520,-9.41976118,44.14645195
44080570,-2.72183585,-8.79302502,9.79681492,0.37201694,-3.21681643,-1.05740774,-17.67027187,-9.71207285,46.76264381
44133570,-2.41555452,-6.66580582,5.22054052,0.34636059,-3.76659489,-1.70492494,-7.27857494,-10.83747482,49.90500068
44186570,0.80638129,-7.04028225,7.82512808,0.29688048,-2.97918963,-0.97188658,1.30078984,-11.08594036,50.57731438
44239570,2.14875460,-8.58843899,7.69890690,0.28527409,-3.18566203,-1.46057868,9.88015461,-10.47208452,49.02806663
44292570,3.21535540,-5.19601488,6.53778934,0.13072516,-3.04882836,-1.72141826,19.29260540,-9.24437380,47.63958168
44345570,5.08714104,-5.94436979,5.94915533,-0.16920967,-2.55036235,-1.40804434,26.73195124,-8.41128397,44.27799415
44398570,7.32861757,-6.56291437,7.14975452,1.19240892,-2.00424886,-0.70188415,31.97895462,-3.50043899,41.54487037
44451570,6.62393093,-4.04087925,4.98125839,1.56320405,-1.93461025,-0.88819808,36.21748162,1.32271242,39.20637321
44504570,7.97647476,-3.63888526,4.91425991,1.12582457,-2.11542630,-0.99998641,39.85676861,4.84507370,35.88863182
44557570,7.74257612,-2.42512584,3.42891502,1.37872279,-2.53509092,-1.33718395,43.33528328,9.50745392,29.51622200
44610570,8.23011398,-2.36709976,3.84885526,0.30604348,-2.49294090,-1.00181901,46.02455521,12.89827347,23.26074409
44663570,8.83908653,-0.99361956,1.55174565,1.10566604,-2.66948104,-1.45202661,47.26688290,17.09295464,15.87985992
44716570,8.45563698,0.88175511,-1.46560383,1.34207094,-3.24613786,-1.21256745,47.19380474,20.68839455,6.81818294
44769570,9.27159023,0.53419763,-2.69551468,2.33717036,-3.02500463,-1.28159523,46.59456444,23.91844368,-3.88044310
44822570,7.64387226,0.58085769,-3.15374017,0.94989544,-3.43794942,-0.57787853,43.51067066,25.57000923,-13.97982979
44875570,6.49890614,0.73100734,-4.18624306,1.67804670,-3.15939498,-0.48930305,40.17831135,25.14615440,-22.67611790
44928570,9.34756184,-0.44446683,-6.38704205,-0.02015855,-2.88267303,-0.03543018,35.69131947,24.63460922,-30.07161522
44981570,6.96490860,-0.88594264,-7.52303410,1.91994941,-2.75439143,-0.56260687,29.91815377,23.15843201,-36.61940766
45034570,5.60279417,-0.60538417,-7.64566660,0.22785273,-2.38542867,-0.19547687,24.26191235,22.10610771,-41.38409996
45087570,4.84486771,-0.63649082,-9.29133129,-0.51557022,-3.04271984,-0.69577551,16.83718205,23.40689659,-44.08798409
45140570,2.45862532,-0.00957129,-10.20538902,-0.11423180,-2.36404824,-1.08245325,9.45629978,25.30692863,-46.00263024
45193570,0.66520470,0.76510507,-8.25224686,-0.43493605,-2.96147466,-0.86132002,1.85618305,26.97310829,-47.42034340
45246570,-0.19082761,-0.42532426,-5.82532644,-2.67314625,-2.61694670,-0.20341812,-4.37006664,32.42472649,-43.63490105
45299570,-1.94656134,2.18644166,-9.79023361,-0.86437434,-3.30783510,-1.19057631,-12.40864849,36.51709938,-36.03478432
45352570,-2.07637191,1.99920332,-9.15912724,-0.65057147,-2.09221339,-1.23700213,-19.81876659,37.39403725,-36.53171349
45405570,-4.13599396,2.62313199,-8.84746170,-0.64018679,-2.02440739,-1.28159523,-25.85501384,36.34171104,-33.15550804
45458570,-5.13679218,2.13499618,-9.00598621,-0.33353242,-1.58519530,-1.10566604,-30.88277721,36.06401634,-29.67699242
45511570,-4.41715097,0.96071833,-4.53918457,-0.58520895,-1.92361462,-1.34817958,-34.77053356,35.05554008,-26.22770882
45564570,-6.94098043,2.09790730,-6.93739128,-0.27550021,-2.18750834,-1.48684597,-39.85676098,32.83396721,-21.02455330
45617570,-8.39342403,0.96012008,-6.74237585,-0.15943582,-2.16490650,-1.96393180,-44.02221966,29.92545891,-15.54369927
45670570,-7.86999369,0.95114696,-4.09830713,-0.90652400,-2.03723550,-1.80510676,-47.36918926,25.59923935,-10.53054571
45723570,-9.38524818,0.55393839,-3.12861538,-1.15148091,-2.19606066,-1.25716066,-49.26922130,22.64688683,-3.93890572
45776570,-8.80618572,-0.66460651,-2.74935317,0.46670106,-1.82893050,-2.03845739,-50.36538982,17.85296631,1.49810123
45829570,-11.12183952,-2.40299225,-2.94077897,2.77638268,-1.29259086,-2.49110842,-50.61385631,11.74364090,4.12891006
45882570,-9.45523930,-1.94596303,-2.52622247,2.25959063,-1.19485247,-0.98410386,-51.15463543,8.70359421,6.93510818
45935570,-8.77687263,-5.05782890,-0.50189453,1.66094267,-1.28526044,-0.46792275,-50.67232036,8.41128254,9.43437576
45988570,-9.60598660,-5.16251469,2.56211472,0.35430184,-1.80388498,-1.28220618,-49.85383892,6.80356503,14.46214676
46041570,-9.86620617,-2.12004113,-1.17607236,0.15149458,-2.25531435,-1.80816114,-47.01841259,1.04501581,20.24992752
46094570,-8.48195839,-4.15992260,1.84486628,2.89672279,-0.36529744,-1.80816114,-45.99531841,-0.32885170,21.93072510
46147570,-7.23230600,-6.77587557,3.56949306,0.70554930,-0.98410386,-1.37017083,-44.24145031,-2.25811219,25.45308494
46200570,-6.64546633,-7.11326361,3.23808718,0.29749137,-0.89613926,-1.60413206,-41.49371624,-5.26892769,27.61619377
46253570,-6.89432049,-5.73200703,4.26401043,0.11301007,-0.61880648,-1.79166770,-39.16983318,-8.76205826,29.13622093
46306570,-4.93100929,-8.49631500,5.15114880,0.45570546,-0.38362336,-1.29625595,-38.21982097,-10.88132191,29.96930885
46359570,-5.17806768,-6.60837793,4.39621353,-0.31154126,-0.31887165,-1.24249983,-35.26746654,-13.83367538,31.69394874
46412570,-4.33400011,-7.69651365,4.44825745,-0.05009095,-0.48014009,-1.23272610,-33.74744701,-16.33294392,31.62087059
46465570,-4.17846632,-8.46520805,4.05523634,0.30054569,-0.13072516,-1.49234378,-31.67202282,-19.41683865,31.69394874
46518570,-3.61794806,-7.64566660,4.45543575,0.80084431,-0.37384951,-1.81976759,-29.30429363,-20.55685425,33.93013954
46571570,-2.05842566,-7.95314407,5.62851763,0.59498274,-0.70005155,-1.86252809,-25.62116146,-22.19380379,35.30400657
46624570,-1.40279222,-7.85085154,5.85284472,1.14964831,-0.66156709,-1.88513017,-21.83571911,-22.90996933,37.73019600
46677570,-0.37986061,-8.18524837,6.16151810,1.30175376,-1.04091430,-1.83870435,-17.34872722,-22.60304070,41.55948448
46730570,0.63469625,-7.16291475,6.68913555,1.33962739,-0.91507614,-1.70309234,-13.22712612,-20.96609306,43.64952278
46783570,1.76231396,-6.40319395,6.78305435,1.78372645,-1.02258837,-1.56503677,-8.79859447,-18.32066727,46.44109917
46836570,2.32642198,-6.13101006,7.21436024,1.33596230,-0.87109381,-1.82954133,-4.64776134,-16.15755653,48.09266472
46889570,3.10468721,-5.08534670,6.84885693,1.58214104,-0.04764749,-1.84603477,-2.00233745,-12.88366032,49.65653801
46942570,3.91047072,-4.73838711,7.91964436,-0.77152276,0.21868975,-1.73363554,-0.48231411,-12.94212246,49.59807014
46995570,3.89132762,-4.52422953,7.13898611,0.02260201,0.72998393,-1.83320653,0.07307911,-13.80444336,48.88191032
47048570,3.91346145,-3.72502685,7.92443085,-0.48991391,1.02564275,-1.82404363,-0.92078113,-15.17831135,48.23882103
47101570,3.42891502,-3.64486718,7.86221743,0.25106561,1.13804185,-2.04578781,-2.13387966,-14.71061134,48.58959770
47154570,3.41037059,-3.12203550,8.23190784,-0.85826564,1.71530962,-1.87841070,-3.97544384,-16.25986671,47.84419823
47207570,2.23190522,-3.11066937,8.66680336,-0.97738439,2.21927333,-1.46180058,-6.86933422,-19.60684013,45.91493797
47260570,2.26121759,-3.32363081,8.96889782,-0.85765481,2.49966073,-1.25471711,-11.23940181,-21.72610474,44.07336998
47313570,1.06899357,-4.45064974,9.30927658,-2.54791903,2.00669217,-1.07573366,-14.29406261,-26.75387383,39.10406685
47366570,1.09172535,-5.58365202,7.18145895,-3.53202271,2.04884195,-0.64079762,-16.12101650,-34.14937210,31.03624916
47419570,0.72023964,-7.06181717,8.24626446,-3.42023444,1.68537724,-0.77702057,-16.92487621,-39.41099358,21.46302414
47472570,0.13100703,-8.19182777,6.40259504,-2.48683238,1.61329508,-0.74647731,-16.50102138,-43.47413063,15.07600212
47525570,0.19860430,-9.27816963,4.25623322,-3.41290402,1.78494823,-1.10627699,-15.44869899,-46.45571709,6.08740330
47578570,0.11246267,-8.74935627,3.36909413,-4.54972410,1.84175861,-1.08489656,-12.07249355,-47.43496132,-6.97895241
47631570,0.90867442,-10.59601784,1.44406843,-3.23941827,1.94743836,-1.17286122,-8.60859203,-46.54340935,-17.56065369
47684570,0.90807617,-9.74237728,0.86680001,-1.99386418,1.79838717,-0.95233893,-3.58082485,-44.32183647,-24.98538399
47737570,2.23011088,-10.67617702,-1.65822613,-2.76783037,2.22904706,-1.24433255,1.46156216,-42.29026604,-30.30546379
47790570,3.17228460,-8.91446114,-0.86680001,-1.94255137,1.79166770,-1.71714222,8.14089680,-37.92019844,-34.58783913
47843570,5.25942421,-9.40917683,-2.08534503,-1.46852005,1.77578533,-2.00852489,15.12715626,-33.63782692,-36.56094742
47896570,4.55055046,-8.38803959,0.04666004,-1.16247654,1.13559854,-2.80081725,22.14264965,-28.80005837,-37.33557511
47949570,6.19501829,-5.59860659,-4.71326256,-1.57725406,1.66705132,-2.72079372,29.18737328,-23.15843391,-37.24787903
48002570,7.21854782,-4.28315306,-2.40059948,-2.70063519,2.09038091,-2.19361687,35.73516655,-14.03829289,-35.34784889
48055570,8.05125046,-2.60997152,-1.79282236,-2.57540774,2.51493216,-1.91628420,40.86524487,-5.66354919,-32.95088959
48108570,9.39840889,-2.87976193,-0.97088778,-2.25409269,2.18506503,-1.69515097,44.46068573,2.02426147,-26.78310204
48161570,9.06221771,-2.83489680,-0.97926271,-2.81486702,2.27730560,-1.76906562,46.87226105,8.73282623,-20.43992901
48214570,9.00060272,-0.75493556,1.77667081,-2.16796064,2.10259819,-1.73302472,47.88073826,15.70447159,-14.28675747
48267570,9.21834946,-0.81236327,0.42173502,-2.39459181,2.42452407,-2.21438646,47.67611981,22.12072372,-5.40046668
48320570,8.27318478,2.06560397,5.67338228,-2.49233007,2.12153482,-2.18262148,44.40222264,28.21543312,3.12043381
48373570,8.22353363,0.24646074,1.62532485,-2.68292022,2.01952052,-2.27486205,40.03215599,32.95089149,11.27594375
48426570,7.44885683,2.20917344,5.35035086,-2.61022711,2.11848068,-2.29013371,35.29669810,35.05554008,20.68839645
48479570,6.79681301,2.61296248,6.04666328,-3.24919224,2.32128787,-1.86069560,28.79275179,35.34784889,28.87313652
48532570,6.02452946,0.73100734,6.65144920,-2.80326056,2.37443304,-1.56320405,21.83572197,33.47705269,36.99941444
48585570,4.97408009,0.25782663,7.54696226,-2.36771369,2.47217155,-1.47340703,14.13329602,29.63314629,43.95644188
48638570,3.56410956,0.77587283,9.57129097,-1.87291288,2.12458944,-1.36589468,6.44548512,24.03536797,48.82344246
48691570,2.40299225,-1.26161575,9.42951584,-2.05983758,2.09465694,-1.37872279,-0.32154369,18.99298286,50.32885170
48744570,2.13439775,-1.10608232,9.28594589,-1.52960658,1.95599043,-1.24983037,-6.31394100,14.68137932,51.57118034
48797570,0.92063850,-2.18524528,9.78724289,-0.86987209,1.69759452,-1.41048777,-11.69248485,11.52440834,50.62116813
48850570,0.19860430,-2.52024055,9.73161030,-1.27059972,1.43980932,-1.92483628,-16.55948543,7.18357182,49.40806770
48903570,-0.13040884,-3.27936363,9.81356430,-1.50578284,1.22417390,-2.35488558,-19.01490307,1.93656731,48.53112984
48956570,0.35892344,-3.25423884,10.22273636,-1.60779727,1.17591548,-2.47889113,-21.47032833,-5.16661847,46.30955696
49009570,-0.23150560,-3.54735970,9.99541855,-0.79351389,0.95050627,-1.93705368,-21.98187542,-10.60362530,45.09646416
49062570,0.16450654,-4.51525640,10.46022415,-1.61329508,0.60414571,-2.14902401,-22.18649578,-15.79216671,43.07951164
49115570,0.44327039,-5.11226559,8.59741211,-1.86802590,0.01893682,-2.19422793,-19.23414135,-22.90996933,40.27330971
49168570,1.00199449,-6.17348242,8.17029285,-1.84420216,0.58459800,-2.04090071,-17.10026455,-28.65390205,37.10172462
49221570,1.43988097,-5.99641371,9.04786015,-0.18448131,0.64263022,-1.73424637,-14.98099804,-31.65010071,35.68401146
49274570,1.63369966,-6.39840794,7.34357262,-0.79717916,0.13805555,-1.91567338,-11.69248485,-35.37708473,34.01783180
49327570,2.88036013,-4.18564510,7.82213736,0.46486843,-0.20463985,-2.11237216,-7.76089000,-35.37708473,34.89476585
49380570,2.80379009,-5.76730061,9.18784046,0.11301007,-0.55894172,-2.21072125,-2.16310787,-36.18094254,35.11400032
49433570,3.54795790,-5.22353172,7.67617512,0.38362336,-0.71471232,-2.09221339,4.00467778,-35.45015907,36.78017998
49486570,4.18983269,-4.00438881,7.89930582,-0.20891590,-0.84971356,-1.64750350,11.94095516,-34.55860901,36.64864158
49539570,4.73778868,-4.35912514,7.07737112,1.29014730,-0.79595739,-1.39827049,12.84712315,-32.90704346,37.39403724
49592570,5.69431973,-2.49571419,7.33818865,0.12278391,-1.13193321,-1.16736341,17.48027039,-31.10932732,38.47559547
49645570,5.40718126,-2.90129757,7.82453012,0.33108896,-1.16369820,-1.46180058,20.94417000,-29.07775497,38.94329262
49698570,6.79142904,-1.46799672,5.72961378,-1.58580613,-1.84725642,-1.70248139,27.19965053,-30.34931374,33.82782936
49751570,8.47238636,-2.86181593,4.56909466,-1.69515097,-1.85641944,-2.05495071,33.86436844,-30.40777779,28.33235740
49804570,7.85444021,0.06041877,4.99741030,-0.90224791,-0.97005403,-1.84420216,39.06752491,-29.18006325,23.17304802
49857570,8.71166897,-0.58803618,3.88056016,-0.67378438,-2.20644522,-1.38299894,43.17451191,-26.44694519,19.57761001
49910570,9.37149048,-0.94995064,2.93838596,0.82466811,-2.06594634,-1.31336021,46.59456444,-23.77228928,15.20754242
49963570,9.16809940,0.79441720,2.41256356,0.91446525,-2.78371286,-1.21073484,49.89769078,-19.70915031,8.93744659
50016570,9.36072254,0.70528448,0.12263216,1.73852241,-2.89183593,-0.64934975,51.19848156,-17.77988911,2.11195659
50069570,9.42831898,1.31784701,-2.03330112,3.25346828,-2.42880011,-0.21013764,51.69541264,-16.94679928,-1.84887362
50122570,9.31466007,-0.05802595,-3.08494663,2.16063046,-2.40070033,0.14660765,50.97924710,-17.54603958,-6.04355335
50175570,7.72941542,0.83330047,-4.62652302,1.88879526,-1.96270990,0.41294488,49.57614804,-19.28529644,-10.13592422
50228570,7.36331367,-0.12323037,-5.47776937,1.94560575,-1.77273095,0.83016580,47.93920040,-22.28149796,-12.25518751
50281570,6.88175821,-1.30349028,-5.54596472,1.55465198,-1.41720736,0.70493847,46.38994599,-25.24846649,-14.65214777
50334570,6.47497797,-1.67557406,-5.98145866,1.89673662,-0.66828656,0.98532563,44.09529591,-28.46389961,-13.99444485
50387570,7.21316385,-4.48115873,-5.44127893,2.32189870,-0.62491518,1.06290555,41.63987255,-32.96550751,-10.86670470
50440570,6.57009268,-4.86879587,-6.28654337,1.56503677,-0.56199604,0.94928455,39.73984337,-35.72785759,-9.72668714
50493570,6.20458937,-5.15593529,-5.77388144,1.55159771,-0.33414328,0.99448860,37.62058020,-38.54866982,-7.11049295
50546570,5.62014246,-6.22971392,-4.37647247,2.61328149,0.22785273,0.99876463,35.73516655,-40.88716698,-1.32271147
50599570,5.52024221,-7.28614473,-4.02891493,2.39642429,0.54428095,0.97249746,33.76205898,-42.42180824,4.12891006
50652570,5.01176691,-7.97767067,-3.23270369,2.44040656,0.93523467,0.70616019,31.48202396,-42.68488884,10.63285827
50705570,5.21396112,-7.70010328,-2.19481659,1.89001703,1.00609505,0.54550260,29.52353227,-41.80795097,16.21601868
50758570,4.85802841,-8.21814919,-0.26081768,1.73180294,1.23272610,0.65606928,26.68810416,-40.58024025,21.91610527
50811570,4.64686155,-8.28395176,0.29012975,1.56137156,1.42453778,0.61269784,23.60421038,-38.51943779,26.91464805
50864570,4.18444872,-8.50588703,1.43210435,1.59496915,1.37200332,0.57726765,19.78953648,-36.99941444,30.90470695
50917570,3.79681134,-8.07757092,2.28813672,2.35793972,1.83015227,0.15821409,16.57410240,-33.38935852,36.73633766
50970570,3.81236458,-8.41017342,3.94038081,2.21133208,1.65788817,-0.36041048,12.58404064,-28.05466270,42.05641365
51023570,3.93380046,-8.00578690,5.39162779,2.13314128,1.68110108,-0.83260930,9.83630657,-22.09149361,45.66647148
51076570,3.25543523,-6.17228603,6.31884670,1.76478970,1.82831967,-1.16369820,6.50394726,-17.48757744,48.34112739
51129570,2.97487664,-5.52024221,7.45244598,1.26754546,1.31336021,-1.24616504,3.78544331,-13.26366615,49.45191383
51182570,2.97368050,-5.39701128,7.09950495,1.10322261,1.36528385,-1.24127817,1.18386364,-10.50131607,51.20578575
51235570,2.42153668,-4.06241465,9.68016434,1.08550751,1.42209423,-1.40987694,-2.17772579,-7.56357861,51.27886772
51288570,3.00598335,-4.22393036,8.33300495,1.31091678,1.07817709,-1.57481050,-4.91084575,-2.93043017,52.12656975
51341570,2.40418839,-2.74696040,9.33380318,0.96028018,0.95417154,-1.62184715,-7.23472500,-0.28500509,51.81964302
51394570,1.88554430,-1.34476638,9.81834984,1.48440242,0.96516705,-2.02257490,-10.12861919,2.84273529,51.42502403
51447570,1.82273269,-1.52362990,9.36909771,0.11911872,1.14292884,-1.93461025,-13.09558391,2.93042946,50.66501045
51500570,1.01515496,-0.49651071,9.86979580,0.55894172,1.01464713,-1.90895391,-15.82870388,3.07658529,50.09499931
51553570,0.52043891,-0.30807593,9.49711323,-0.43493605,0.77274454,-1.59619081,-16.96872234,1.05963135,49.02806663
51606570,-0.24466611,0.68733829,10.36271667,-0.55222219,0.86132002,-0.93462378,-18.89797878,-1.73195028,47.65419578
51659570,0.10707881,-2.23489618,8.00997448,0.21685717,0.88636547,0.08674286,-20.84185695,-1.93656874,46.99649620
51712570,-0.27696919,-0.11844473,10.67677402,-0.58459800,1.39338350,-0.42638394,-24.30575847,-3.04735518,44.95030784
51765570,-0.63110697,-2.05064893,9.25663471,-0.29260448,0.95050627,-0.16493361,-27.09734249,-4.11429459,43.59105491
51818570,-1.01814604,-1.37527478,10.36032295,-0.41722095,0.88514376,-0.29138273,-28.88044262,-5.44431502,41.70564079
51871570,-1.55054903,-1.79342067,9.64008427,-0.45631632,0.57421333,-0.22602014,-30.21046352,-6.62817955,40.12715721
51924570,-2.32821655,-1.90169585,11.55972672,-0.26328292,0.14905111,0.08857546,-31.27740383,-7.88512182,39.52791786
51977570,-2.04825616,-1.74257314,9.47079182,0.09285152,-0.49174652,0.36285394,-30.72200680,-7.22741938,39.55714607
52030570,-1.40518510,-2.25942278,8.69073105,0.31337386,-0.05070181,0.62247169,-30.26892757,-5.23969650,40.68255043
52083570,-1.95912361,-2.39820647,9.93200874,-0.19058995,0.35735616,0.24129176,-31.23355770,-4.90353751,40.59485435
52136570,-1.91545463,-2.25463724,10.23769188,-0.02748894,0.25961775,-0.02504547,-31.84741497,-5.28354335,39.20637321
52189570,-2.24386930,-1.80658102,10.21735287,-0.09529497,0.06352998,-0.21685717,-31.99356365,-6.17509556,39.61561012
52242570,-2.03389931,-1.65942252,9.97627544,0.09651671,-0.10812315,-0.06475171,-32.12510586,-5.75124288,39.30868339
52295570,-1.56131685,-1.82333088,9.73938656,0.06047566,-0.09834930,-0.00733038,-31.16047573,-5.09354043,40.09792518
52348570,-1.34775734,-1.73838580,9.34277630,0.17226399,-0.12705997,-0.00183260,-31.68664455,-5.03507799,40.21485329
52401570,-1.36091793,-1.65523505,9.35115147,0.04276057,0.10690141,-0.00244346,-31.33586406,-5.29815894,39.61561012
52454570,-1.89511561,-1.72642159,9.82193851,0.04459316,0.11789699,-0.01649336,-31.71587276,-4.97661555,40.49254799
52507570,-1.82632184,-1.63130689,9.82253742,-0.03298672,0.10140362,-0.00977384,-31.93510341,-4.50891605,39.39637565
52560570,-1.91485631,-1.72701967,9.88056278,0.10812315,0.06230826,0.03604105,-32.37357616,-8.00204659,39.55714607
52613570,-1.95373964,-1.49371958,9.85125065,-0.02138028,0.02443461,-0.02443461,-32.21280193,-5.03507799,39.11868095
52666570,-1.74077845,-1.50807655,9.82074261,0.06841691,0.00916298,0.08246680,-31.97894954,-4.49430044,39.39637565
52719570,-1.63788724,-1.63369966,9.75613594,0.04459316,0.01466077,0.11362094,-32.41741848,-4.42122239,39.19175911
52772570,-1.79162598,-1.53439748,9.65264606,-0.01710423,0.01160644,0.02932153,-32.03741741,-4.46506922,40.44870186
52825570,-1.86400890,-1.52961195,9.71545792,-0.06719518,0.06414085,0.04337143,-31.70125866,-4.23121947,39.27945137
52878570,-1.87417829,-1.75334084,9.75434208,0.02015855,0.01466077,0.09529497,-32.13971996,-4.77199703,39.29406547
52931570,-1.81555402,-1.81495607,9.75493908,-0.00610865,0.03420845,0.08979719,-32.84127331,-3.99736974,40.09792518
52984570,-1.87238383,-1.77367985,9.78066349,-0.07452556,0.04825835,0.01099557,-32.94358349,-4.20198825,40.21485329
53037570,-1.95314157,-1.69172561,9.85783100,-0.11301007,0.03909538,-0.03054326,-32.68050289,-3.77813554,39.45483970
53090570,-1.85982144,-1.59062886,9.54616642,0.05009095,-0.00855211,0.07147123,-32.54896068,-4.55276288,39.86407661
53143570,-1.77726901,-1.79581344,9.61555862,-0.02626720,0.06352998,0.08246680,-32.35895824,-3.71967316,39.44022178
53196570,-1.87358022,-1.72642159,9.74596691,-0.04398230,0.07452556,0.02809980,-32.85589122,-3.99736974,39.39637565
53249570,-1.92442763,-1.72223413,9.74955654,-0.03176499,0.03604105,0.04886922,-32.47588634,-3.51505464,39.19175911
53302570,-1.95433784,-1.75693011,9.58445072,-0.00794125,0.05803220,0.03359759,-32.69511699,-3.52967024,39.41099357
