milli,accel_x,accel_y,accel_x,gyro_x,gyro_y,gyro_z
3346953,-1.03130651,-0.76749784,10.00558758,0.06719518,0.15027285,-0.05131268,-23.32651424,-1.49810052,39.29406547
3399570,-2.45324135,-1.61096776,10.17308521,0.14599679,0.05192355,0.05558874,-22.99035549,-0.59193277,39.64483833
3452570,-2.98384976,-1.53379941,12.08554935,0.24190263,0.04948008,-0.31703907,-22.97573375,-1.13271046,39.90792274
3505570,-3.59581423,-0.83330047,11.40957642,0.15454890,0.36102137,-0.28649577,-23.80882930,-2.36042142,40.31715965
3558570,-4.50568485,0.50847483,9.45045280,-0.13927726,0.27122414,-0.60536742,-24.67114544,-4.23121947,40.33177376
3611570,-2.28035975,1.07377923,10.66780186,0.47708577,0.04825835,-0.97249746,-25.27038860,-6.87664485,42.49488258
3664570,-1.95015049,2.44426823,10.50867844,-0.21197022,0.01710423,-1.17102873,-26.80502987,-8.45513058,43.07951164
3717570,-0.13698909,0.00478565,10.08036327,-0.17165314,0.16310102,-1.46302223,-26.96580028,-9.06898594,42.84565925
3770570,-0.68614191,1.46440744,9.61795044,-0.05436701,0.14172073,-1.50150669,-26.04501629,-9.58053255,40.96024895
3823570,0.21296121,0.38464624,9.23450089,0.07696902,0.14538592,-1.60229957,-23.95498562,-11.81672096,40.14177131
3876570,0.81714898,0.64247292,9.74237728,0.61147606,0.03420845,-2.15513253,-21.66033077,-14.14060211,40.91639900
3929570,0.23988047,-0.63948190,8.13679314,-0.26694813,0.07880161,-1.42392683,-19.45337200,-17.23911285,41.10640144
3982570,0.60000032,0.06221339,8.80379295,0.41905355,-0.11484267,-1.95110357,-18.06489086,-19.24145031,41.83718300
4035570,0.22432712,-0.53180480,7.96989393,-0.03604105,-0.11056660,-1.51922178,-15.75562572,-20.36685276,41.26717186
4088570,1.09352005,-1.31365967,9.09033298,-0.04825835,-0.25839600,-1.53754783,-13.63636303,-22.31072807,42.23180580
4141570,0.70289165,-0.73639119,9.15793037,-0.09529497,-0.15332718,-1.37444675,-11.56094646,-24.56153297,41.39871406
4194570,0.81176507,-1.50987113,9.04247665,0.29810223,0.24495696,-1.22661746,-9.76322460,-24.98538399,41.92487907
4247570,0.40917265,-0.79501534,9.69093132,-0.02382374,-0.06963863,-1.01159286,-8.49166774,-25.33615875,41.64718056
4300570,1.48235369,-1.53021014,9.45344448,-0.10262536,-1.65910995,-0.67989302,-5.49546718,-26.00847816,41.41332817
4353570,1.30408823,-1.35732865,9.89970589,0.06780604,-0.61025441,-1.24127817,-1.97310924,-27.42619133,41.73487282
4406570,2.15772772,-1.61934268,10.97169018,-0.19792034,0.40256017,-0.70738196,-0.43846607,-28.14235687,41.53025245
4459570,0.71007007,-2.82532525,8.86480999,0.02993240,0.39095375,-1.46241140,0.45308399,-29.06313896,41.95410728
4512570,2.57108808,0.72801632,13.04447269,-0.53389627,-0.23823744,-1.21134567,2.93773937,-29.39929962,41.70564079
4565570,1.28255284,-4.59661245,9.34157944,0.53145278,0.82405716,-1.14964831,3.47851467,-28.87313843,42.08564949
4618570,1.19820595,-1.56430769,9.94457150,-0.43432519,0.11789699,-0.12400565,2.44080639,-28.50774574,41.98333931
4671570,0.85244310,-2.30907393,10.66780186,0.36285394,0.69333202,-0.42577308,2.28003598,-28.97544670,42.61181068
4724570,0.09750752,0.17766708,10.52961636,0.73303825,0.78251839,-0.18997908,0.83309078,-27.00233841,43.05027962
4777570,-0.64905310,-0.36909288,9.82134056,0.65912360,-0.06047566,-0.03604105,0.26308346,-25.93539810,43.54720878
4830570,-0.27696919,-2.16071868,9.39601707,-0.70127332,-0.41722095,0.44165558,0.14615727,-26.38848305,42.91873741
4883570,-0.30927235,-1.43210435,10.58465004,-0.56810468,0.25106561,0.56505036,-0.08769321,-28.18620300,41.93949318
4936570,-0.90029949,-1.82153618,9.07358265,-0.78679442,0.56321776,-0.05619960,-1.63694668,-28.05466270,42.34872627
4989570,-3.00837636,-4.17786884,10.10967541,-1.32924283,-0.36774087,-0.46731189,-1.08155346,-30.68547249,40.84332466
5042570,-1.58584309,-1.23409832,10.91007519,-0.72631878,-0.63652152,-0.78740525,2.04618550,-32.33703613,39.19175911
5095570,-0.89910311,-2.27497602,5.65902519,1.25349545,-0.69027770,-0.07086036,3.94621563,-30.64162636,41.72025490
5148570,-1.22512519,-0.28654051,10.25025368,-0.79045957,-0.42699480,-1.12643552,5.52470112,-31.56240845,39.83484459
5201570,0.40558347,0.10408779,7.95852852,-1.97126210,0.00183260,-0.98532563,8.24320507,-34.32475853,37.33557319
5254570,0.40079778,-0.97507524,6.90329361,0.40256017,0.23884831,-0.41538838,8.93013859,-35.04092407,37.20403480
5307570,1.24008036,2.01894403,10.26401329,0.57115901,-0.26145032,-0.77335542,9.88015461,-34.50014496,37.52557945
5360570,2.81156659,-1.31425786,1.90648150,1.13498759,0.08674286,-0.14599679,10.83016873,-31.63548660,39.86407661
5413570,0.83210409,-0.11904293,9.06760120,-0.35918877,1.23578036,-0.58459800,10.18708134,-33.31628037,39.22098732
5466570,0.48514479,-0.69870424,10.13539982,0.47219881,0.35063666,-0.51007247,9.10552502,-32.86319923,39.57176399
5519570,0.75852478,-2.27916360,9.69332504,0.09529497,0.51862454,-0.66217792,9.20783520,-31.60625649,39.92253685
5572570,0.51086766,0.84586281,9.66401291,0.55344391,-0.05986479,-1.27365410,10.99093914,-30.11546326,41.29640770
5625570,0.41276190,0.21834506,12.03709507,2.03173780,0.07635815,-0.91263264,11.50248623,-26.22771263,43.98568153
5678570,1.01994061,0.64486575,7.81555700,1.55465198,-0.54428095,-1.28770387,13.75329113,-22.35457611,45.91493797
5731570,1.84426808,1.32023990,10.75274563,-0.73731434,0.48808134,-1.28098440,14.29406643,-22.13533974,45.44724083
5784570,1.34656107,-0.29132617,11.57288647,1.21440005,-0.26755896,-0.72876221,14.71791935,-20.87839890,46.58725548
5837570,0.62333030,-0.11904293,11.19003487,1.03541660,0.11789699,-0.43554690,15.90178490,-17.88219929,48.09266472
5890570,0.94157571,1.75034988,9.67777157,0.44654247,-0.13133603,-0.61086524,16.20871258,-16.37679100,48.37035942
5943570,-0.18723837,0.13040884,11.42034435,-1.43736589,0.52778757,-0.31642818,15.94563103,-18.26220417,48.66267204
5996570,0.34636107,-0.83389872,11.98624611,-1.17408299,-0.18875736,-0.91385436,15.77024460,-20.92224693,46.83572197
6049570,0.12382857,0.55513489,10.96810150,-0.03848451,-0.12034045,-0.21502456,17.20257378,-22.12072563,45.59339714
6102570,0.12323037,-0.91884387,10.88495159,0.52717668,-0.20402899,-0.06902777,17.91873837,-21.66764259,46.44109917
6155570,0.81655073,0.56889361,9.52762127,0.10140362,0.11301007,-0.62613684,18.35720635,-20.45454598,45.90032387
6208570,0.33020952,0.48155555,10.60498905,0.55833083,-0.10079277,-0.24495696,18.57644081,-20.14761829,46.82110786
6261570,0.27816561,0.00478565,10.72283649,0.50640726,0.00061087,-0.41661006,18.83952141,-18.64221001,47.25957298
6314570,0.99122679,0.64845496,10.07916832,0.25717425,-0.12522738,-0.37629297,19.39491463,-16.61064053,48.22420311
6367570,0.56231332,1.46560383,9.53958607,0.06719518,-0.05009095,-0.16737707,20.62262631,-16.15755653,47.47881126
6420570,-0.04067799,0.76271224,11.12124157,-0.39645153,0.18631390,-0.27122414,20.31569863,-16.05524731,47.11341667
6473570,1.00917292,2.14097810,8.85703278,-0.23640485,-0.27611110,-0.49602258,21.16340351,-16.62525654,46.99649620
6526570,0.27517459,0.40737805,12.34217834,0.13927726,0.23640485,-0.01832596,21.35340596,-16.84449005,47.90265846
6579570,0.21535406,0.27457643,9.66221809,0.45509461,-0.12461651,-0.19181168,21.35340596,-15.19292641,48.41420936
6632570,0.29910284,1.13120687,9.67119122,-0.53511792,-0.17898352,-0.24129176,21.60187245,-15.80678272,47.34726906
6685570,0.48693940,1.33998072,9.28594589,-0.45998150,-0.08796459,-0.35308009,21.73341275,-17.28295898,47.42034340
6738570,0.34755749,1.46380925,9.16032314,0.11667527,-0.17165314,-0.10079277,22.59573365,-16.94679928,46.77725792
6791570,0.45702910,0.49172506,9.41515923,-0.37323865,0.17104226,-0.05864306,22.90266133,-17.15141773,46.14878654
6844570,0.14656039,0.30209386,10.31246662,-0.12217305,0.09224065,0.06963863,22.66881180,-18.04297066,46.58725548
6897570,0.24047866,0.10468599,10.01755142,0.02443461,0.09285152,-0.00427606,22.39111519,-18.24758911,46.70418358
6950570,0.41096732,0.29072794,9.92602634,0.02748894,0.10079277,-0.04214970,22.47880841,-18.21835709,46.49956703
7003570,0.39780676,0.68135625,10.07856941,0.23823744,-0.05558874,0.04703662,22.53727055,-17.39988422,46.33879280
7056570,0.42532426,0.50967121,9.99721336,-0.13133603,0.13805555,0.05314527,22.59573365,-17.60450268,46.14878654
7109570,0.31764719,0.49890354,9.91406250,0.10690141,0.00427606,0.04764749,22.68342781,-17.80912113,46.22186851
7162570,0.29192436,0.12203396,11.28873920,0.11850785,0.01588250,0.08002335,22.02572441,-17.83835220,46.64571571
7215570,0.63349974,0.11485548,13.08455276,-0.34391710,0.24007004,-0.10018190,22.12803364,-17.99912357,46.70418358
7268570,0.45583272,-0.59222358,15.32004642,-0.18387043,0.22113320,0.16310102,21.26571274,-18.58374882,46.64571571
7321570,0.51684976,0.27816561,12.77408409,0.58215451,0.13744467,0.06352998,20.59339524,-17.00526238,47.25957298
7374570,-0.37447673,1.54217422,13.28853989,0.07024951,-0.02138028,-0.16982055,20.25723553,-16.58140945,47.50803947
7427570,-0.62751776,2.06859517,8.87856865,0.46670106,-0.32986721,0.58643061,20.91493798,-15.89447594,47.49342537
7480570,-0.77587283,0.47437710,10.29631519,-0.64507365,0.64568460,0.59498274,19.58491802,-17.67758083,47.39111519
7533570,-0.55992055,0.11844473,8.05244637,-0.26816982,-0.03176499,0.42088613,19.02952481,-19.25606632,47.04033851
7586570,-0.50309092,0.54556352,9.66281605,-0.12583824,0.27550021,0.19120082,18.21105004,-20.16223335,45.81262779
7639570,-0.21056838,-0.19680966,8.82353306,-0.03115413,-0.18692476,0.45631632,17.67027378,-20.23531151,45.97339821
7692570,-0.79621172,0.63529438,8.94676495,-0.99265599,0.19547687,-0.23396137,17.56796360,-22.14995766,45.40339470
7745570,-0.19142582,-0.98105729,8.31266594,-0.52900928,0.20769419,0.42027527,17.56796360,-23.58228684,44.24875831
7798570,-0.48993042,-0.11126625,9.00658512,-0.47036624,-0.10506882,0.06291912,17.07103253,-25.10231018,42.53873634
7851570,-0.12382857,-1.51764786,8.41795063,-0.08307768,-0.22357668,0.14110987,17.15872765,-25.73078156,42.94796943
7904570,0.00658026,-1.30528474,8.47238636,-0.60903263,-0.35552356,0.16676621,17.55334854,-26.84156609,41.20871162
7957570,0.26799616,-1.87776756,9.33559799,-0.68172556,0.53084189,0.10018190,17.43642330,-28.59544182,40.87255287
8010570,-0.44506499,-1.91964209,11.22233772,-0.51129419,0.17837265,0.06414085,16.41333103,-29.70622635,39.84945869
8063570,-0.05324030,-2.90727949,9.16809940,0.38912115,-0.28466320,0.16371189,16.67641068,-29.82315064,40.58024025
8116570,-0.61375904,-1.54337060,10.72941685,0.00916298,-0.31154126,-0.06047566,16.86641407,-30.04238510,39.71792030
8169570,-0.26261231,-2.14456749,9.19920635,-0.48991391,-0.33353242,-0.07574729,18.19643498,-30.53931618,39.17714500
8222570,-0.54795635,-2.42512584,10.10907745,-0.57604587,-0.03970624,-0.25717425,18.07951069,-32.08857155,38.68021202
8275570,-0.30149564,-3.01376009,9.40977573,0.18081611,-0.68294734,-0.13255775,19.67261124,-32.22011185,37.86173820
8328570,0.72861457,-1.60678053,6.74716139,-0.02382374,-0.65057147,-0.13561207,21.25109768,-32.43934441,37.18941688
8381570,1.21435750,-2.05064893,6.06401062,-0.11972959,-0.39461893,-0.08368853,21.80648995,-32.51242256,36.21017265
8434570,1.89631188,-1.57268274,3.22971225,0.64812797,-0.66095620,0.25473079,22.93189240,-32.39550018,36.42940712
8487570,1.80538476,-3.02093863,5.24865627,-0.16065755,0.48502702,-0.01099557,21.79187489,-31.73779869,37.99328041
8540570,0.89611208,-2.27617264,7.77727175,0.02871067,0.51984632,-0.00366519,20.56416321,-32.32242012,37.30634498
8593570,0.56829542,-3.18664145,9.47976494,-0.06475171,0.51984632,-0.07330383,20.16954232,-31.81087303,38.15405083
8646570,0.26859432,-2.63210464,10.93101215,0.22357668,0.26450464,0.15577063,18.97106266,-31.34317589,38.27097511
8699570,0.48813584,-2.97487664,10.31486034,-0.27000245,0.46670106,-0.19730946,18.44490052,-31.40163612,38.63636589
8752570,0.09870394,-2.31146669,10.39083290,-0.08674286,0.40866885,-0.06230826,18.06489468,-31.18240547,38.49020958
8805570,0.09810573,-2.39521551,10.24307632,0.03848451,0.16432275,0.04398230,17.97720051,-31.03624916,38.13943291
8858570,0.09631111,-2.68235421,9.70708275,0.08491027,0.18203785,0.09712757,17.40719223,-30.89009094,38.50482368
8911570,0.02213361,-2.95154667,8.42453003,0.15821409,0.08796459,0.13133603,16.80795193,-31.00701523,38.78252220
8964570,-0.35473597,-2.54237413,10.08036327,-0.00916298,0.14538592,0.09040806,16.19409657,-31.10932732,38.56328773
9017570,-0.17946172,-2.42452765,9.42173958,-0.13439035,-0.01954769,0.06108652,16.34025288,-31.57702637,35.94709205
9070570,0.04307081,-3.13998151,8.09312439,0.27794370,-0.24678954,0.23823744,16.50102425,-31.66472054,38.76790428
9123570,-0.03888337,-2.74875522,8.61296463,-0.15943582,0.06719518,-0.01832596,16.19409657,-31.27009773,38.87021446
9176570,-0.35892344,-3.29790783,9.06820011,0.07452556,-0.08552113,0.06841691,16.54487133,-31.19701958,38.59251594
9229570,-0.15433706,-3.40020084,9.63529873,-0.09590584,0.10629055,-0.18203785,16.64718056,-31.25547981,39.55714607
9282570,-0.12502499,-2.40897417,8.64766121,-0.00794125,-0.34941491,0.00000000,17.08564854,-31.59164047,38.91406059
9335570,0.30388850,-2.46341085,7.37767029,-0.13561207,-0.32620203,-0.05742133,17.49488545,-31.88395119,38.43174553
9388570,0.45343989,-2.69072890,6.87457943,0.05558874,-0.01282817,0.01221730,17.81642914,-32.07395554,38.19789696
9441570,0.21595225,-3.44087911,8.88275623,0.06108652,-0.00855211,0.11606439,17.87489224,-32.23472786,38.40251732
9494570,0.33200416,-2.65124726,7.74975443,0.13683382,0.27550021,0.05986479,16.88103104,-31.59164047,38.89944649
9547570,0.22313070,-2.34496617,8.99342346,0.13561207,0.05742133,-0.12583824,17.37796021,-31.19701958,39.04560280
9600570,-0.19920248,-2.73679113,10.71805096,0.24556783,0.16798794,0.16432275,16.41333103,-31.06547737,39.61561012
9653570,0.03529413,-1.91485631,8.54237652,0.23884831,-0.10873401,0.15699238,16.06255627,-30.40777779,39.39637565
9706570,-0.46121657,-1.84965181,10.64028358,-0.26328292,0.43554690,-0.03481932,15.17100334,-30.86085892,39.33791542
9759570,-0.02273181,-1.97766793,8.78046322,1.20157194,-0.36041048,0.26389378,15.60947132,-29.39929962,40.93101311
9812570,-0.37028930,-2.33180571,10.95553875,0.26816982,0.31398475,0.09529497,14.39637661,-28.14235687,41.41332817
9865570,-0.55812591,-1.16709924,11.61296654,0.37934732,0.25656340,0.10323622,14.48407078,-27.29465103,42.12949562
9918570,-0.18245272,-2.18464732,10.29571819,0.88697630,-0.09590584,0.19975293,14.16252613,-26.25694275,42.97719765
9971570,-0.68195444,-1.22811615,11.30189896,0.08613200,0.25106561,-0.05009095,14.10406399,-26.19848061,43.45951271
10024570,-0.82672024,-1.45663083,12.11067390,0.21930061,0.09285152,0.13439035,12.81789112,-25.71616554,43.59105491
10077570,-0.53001028,-0.95832545,11.06620598,0.32925636,-0.01588250,0.03481932,13.44636250,-24.79538345,44.51183891
10130570,-0.37028930,-0.72023964,12.22014523,0.87781334,-0.26878071,0.17409658,13.27097416,-23.53844070,44.58491325
10183570,-0.24705894,-0.08015955,9.55633640,0.66584307,-0.30543262,-0.08185595,14.44022274,-21.74071884,45.69569969
10236570,-0.01196411,-0.04965108,10.14556789,-0.03543018,-0.03054326,0.06352998,14.68868923,-21.36071396,45.31569862
10289570,0.04486543,0.06640083,9.61436176,0.31764993,-0.28038713,0.11667527,14.63022709,-21.24378967,45.54955101
10342570,-0.00239282,-0.54376900,8.92762089,-0.05497787,0.00244346,0.07696902,14.92253781,-21.60917854,45.62262535
10395570,-0.16630118,-0.51924253,9.90449142,-0.13072516,-0.14782940,0.01282817,15.17100334,-21.46302223,45.66647148
10448570,0.01495514,-0.59401822,9.69392300,0.10445795,-0.09773844,0.05253441,15.36100674,-21.78456497,45.73955345
10501570,0.14356937,-0.48035917,9.93021393,0.10384709,-0.19058995,0.02871067,16.19409657,-21.41917610,45.90032387
10554570,0.13280165,-0.46181476,9.75314522,-0.33414328,0.02748894,-0.11972959,15.71178150,-21.75533485,45.57877922
10607570,0.44685966,-0.26620153,9.18305588,-0.06414085,-0.23640485,0.03970624,16.38409901,-22.32534409,45.41800880
10660570,0.52582276,-0.47916272,8.08415127,-0.05803220,-0.11728612,0.03359759,16.70564270,-22.45688438,44.76030922
10713570,0.54795635,-0.52761745,7.21136904,0.16249016,-0.16798794,0.07880161,17.11488056,-22.19380379,44.84799766
10766570,0.70348984,-0.83210409,6.40618467,0.41355574,-0.19242254,0.21135938,17.36334515,-21.93072319,45.25723839
10819570,0.52283174,0.02691926,6.52941513,0.04398230,-0.14599679,0.04337143,17.58257866,-21.59456444,45.27185249
10872570,0.82492566,-0.84945208,7.40817928,-0.08063421,0.02138028,0.30360001,17.61181069,-21.31686783,46.09032631
10925570,0.13698909,0.21176480,9.02931595,0.16493361,-0.14110987,0.15577063,17.67027378,-21.21455765,45.22800636
10978570,1.04087782,0.37268215,7.60379267,0.56871551,-0.00122173,-0.10323622,17.58257866,-19.78222847,46.01725197
11031570,0.93679011,1.66181540,9.52463055,0.65912360,0.11239920,0.00916298,17.30488205,-18.70067406,50.27038765
11084570,0.82073814,1.32682014,11.42513084,0.68355817,0.26939157,0.07208210,16.61794949,-17.15141773,48.04881477
11137570,1.18743825,1.61216426,8.86002445,1.03297317,0.14905111,0.00488692,16.41333103,-15.25138950,48.85267448
11190570,0.19740789,1.90947258,11.95514011,0.38117990,0.67317349,0.09101892,14.87869168,-13.27828217,48.42882347
11243570,0.21535406,2.28394914,11.80319595,0.98715818,0.13866641,0.31031954,14.36714459,-12.82519817,49.74422645
11296570,-0.09690931,1.65164590,11.11466122,0.50213122,0.69333202,0.17104226,12.65711880,-11.58287096,49.83192253
11349570,-0.14297116,2.22771788,11.23071289,0.15027285,-0.11850785,0.39034289,12.35019017,-11.46594620,51.51271629
11402570,-0.49351969,2.47716975,10.34058285,-0.70738196,0.38667771,-0.00977384,11.91172314,-12.81058216,50.25577354
11455570,-0.17048861,2.42692041,8.29232693,-0.32314771,-0.00305433,0.27183503,11.48787022,-14.02367783,50.75270271
11508570,-0.75074810,1.85503578,9.74058342,-0.88331115,0.16310102,0.13194689,10.72785855,-16.21601868,49.53960991
11561570,-0.77946198,1.27537453,10.51466084,-0.89430672,0.72998393,0.29504791,10.04092503,-18.93452168,48.64805794
11614570,-0.94576317,0.80697942,10.26760292,0.98837996,-0.17409658,-0.09407324,9.57322598,-18.75913525,49.90500068
11667570,-0.71844500,1.76231396,12.41755390,-0.30665436,0.39828411,0.03543018,8.87167645,-17.76527405,50.78193855
11720570,-0.98883396,0.47258249,13.04447269,-0.42271876,0.11789699,-0.06230826,8.18474293,-18.78836727,49.72961235
11773570,-0.58025950,1.13180518,10.87537861,0.22663100,-0.40866885,-0.12156218,9.52937794,-18.86144543,49.32037163
11826570,-0.78963155,0.98225373,10.33460140,0.84849185,-0.25473079,0.04031710,10.20169735,-16.44986916,50.18269539
11879570,-0.51026946,1.81375957,9.51625633,-0.04825835,-0.16982055,-0.06169739,11.12247944,-16.25986671,50.51885414
11932570,-0.60538417,1.42073846,9.81535816,-0.32192597,-0.18509217,-0.10812315,11.29786587,-16.42063808,49.94884300
11985570,-0.26500514,1.62951219,9.69392300,0.05131268,-0.13439035,-0.07024951,11.69248867,-17.28295898,50.03653908
12038570,-0.24107689,1.47038949,9.44806099,0.10201450,-0.15515977,-0.01771509,12.21865177,-16.77141190,49.49575996
12091570,-0.26081768,1.44406843,9.76032352,0.02504547,-0.04520403,-0.00427606,12.26249790,-16.43525314,49.93422890
12144570,-0.14416757,1.65463686,9.70827961,-0.04825835,-0.00122173,-0.05742133,12.54019451,-16.61064053,49.94884300
12197570,-0.18185452,1.49013042,9.83091164,-0.10567969,0.07941248,0.01710423,12.33557606,-16.55217838,49.74422645
12250570,-0.15553348,1.44227386,9.64187908,0.14294246,-0.02382374,0.00488692,12.17480374,-16.85910606,49.17421532
12303570,-0.16989039,1.60259306,9.74835968,-0.01588250,0.02993240,-0.02687807,12.51096249,-16.68371868,49.84654045
12356570,-0.16929221,1.59421813,9.74417210,0.18692476,-0.01466077,0.01954769,12.75942707,-16.59602547,49.96346092
12409570,-0.29611179,1.45782709,10.03430176,0.03726278,0.03115413,0.00244346,12.68635083,-16.25986671,50.00731087
12462570,-0.04127619,1.58285213,9.66341400,0.10873401,0.02076942,-0.00305433,12.71558094,-15.67524147,49.61268425
12515570,-0.17826529,1.81914341,9.87099266,-0.00549779,0.02076942,0.00122173,12.24788189,-16.11370945,50.48962593
12568570,-0.13519450,1.79820621,9.67896748,0.10384709,-0.01832596,-0.01954769,12.39403820,-15.28062058,50.15346718
12621570,0.00179462,1.59421813,9.30329418,-0.04703662,0.03298672,0.01771509,12.11634159,-14.82753658,50.84039879
12674570,-0.26081768,1.71685040,10.11027431,0.11239920,-0.02932153,0.03543018,12.37942219,-15.39754486,50.29962349
12727570,-0.08554341,1.65463686,9.81117058,-0.01710423,0.03359759,-0.01221730,12.65711880,-15.90909195,50.47501182
12780570,-0.17886350,1.53320122,9.99840927,0.11423180,0.01649336,0.01710423,12.46711636,-15.58754826,50.31423759
12833570,-0.17766708,1.84426808,9.73280621,0.07391470,-0.00244346,-0.03054326,12.62788677,-15.09061718,49.77345848
12886570,-0.11784652,1.85324109,9.75374413,0.09529497,-0.02871067,-0.01038471,12.74481297,-14.71061134,50.02192497
12939570,0.01375873,2.09371972,9.48754215,0.02565634,-0.04031710,-0.01404990,13.02250958,-14.63753414,50.82578468
12992570,-0.08913264,1.87298191,9.89671516,-0.13072516,0.04886922,0.00122173,12.67173481,-14.85676765,50.40192985
13045570,-0.09810573,1.83529496,9.45643520,0.08552113,-0.01649336,0.01954769,12.89096928,-15.11984825,50.62116813
13098570,-0.01854438,1.76351023,9.49531841,0.05497787,0.00916298,0.02443461,13.11020184,-15.23677349,54.17275810
13151570,-0.13639088,1.83290219,9.79382324,0.05864306,-0.03237586,0.02809980,13.22712803,-14.90061474,50.08038521
13204570,-0.14596218,1.91306174,10.07976437,0.11911872,0.02565634,-0.02871067,13.47559452,-14.56445503,50.75270271
13257570,-0.00538385,1.94117749,9.34457016,0.12644911,-0.08307768,0.00305433,13.50482464,-13.96521568,50.50424003
13310570,-0.01615155,1.90408874,9.73818970,-0.09773844,0.08674286,0.02199115,13.25635815,-14.59368610,50.53347206
13363570,-0.01435694,1.92382932,9.76331425,-0.01282817,0.02138028,0.00794125,13.13943386,-14.60830212,50.38731575
13416570,-0.08315059,1.90767801,10.00199795,0.07819075,-0.03176499,-0.00916298,13.53405476,-14.71061134,50.44577980
13469570,0.08494519,1.80418825,9.47797108,0.02321288,0.05253441,-0.03054326,13.66559506,-14.53522396,50.78193855
13522570,-0.04486543,1.96989119,9.88953590,0.10873401,-0.06230826,0.00977384,13.72405911,-14.38906765,50.19731331
13575570,0.01914258,1.95732892,9.81894779,-0.10018190,0.08002335,-0.04398230,12.99327755,-14.11137104,50.47501182
13628570,-0.03409772,1.80059898,10.13480091,-0.05681047,0.05497787,0.01954769,13.24174404,-14.90061474,51.24963951
13681570,0.06580262,1.79700994,9.41874790,0.13316862,-0.00977384,-0.00427606,13.30020619,-14.21368027,51.41040993
13734570,0.00717847,1.93399894,10.08036327,-0.04703662,0.00244346,0.02199115,13.05174160,-14.75445747,50.98655510
13787570,-0.01734797,1.96989119,9.64845943,0.05925393,-0.03115413,-0.01404990,13.54867077,-14.46214676,51.04501533
13840570,-0.10767703,1.99381948,9.76331425,-0.03787364,0.00671952,-0.00610865,13.28559017,-14.40368366,51.14732551
13893570,-0.08255238,1.99561417,9.64486980,-0.05864306,0.03787364,-0.04337143,13.57790280,-14.25752735,50.56270027
13946570,0.01495514,1.84008062,9.72981548,0.13133603,-0.01160644,0.03909538,13.68021298,-14.97369289,50.81116676
13999570,-0.04546363,2.18763804,9.94157982,-0.03115413,0.02932153,-0.04703662,13.85559941,-13.96521568,51.23501777
14052570,0.04725825,1.82512546,9.37268639,0.02076942,-0.00427606,-0.01282817,13.43174649,-14.11137104,50.56270027
14105570,0.04965108,2.02791715,9.84287643,0.10567969,-0.01771509,0.01954769,13.69482708,-14.11137104,50.57731438
14158570,-0.00358923,2.06321144,9.78245735,-0.01649336,0.01527163,-0.03665191,13.32943821,-14.09675598,51.07424354
14211570,-0.08973086,1.98903382,10.38245773,0.00000000,0.01038471,0.00061087,13.38789845,-14.73984242,51.16194343
14264570,0.00538385,2.00578356,9.90987492,0.18936822,0.00794125,-0.00733038,13.43174649,-14.25752735,51.32271385
14317570,0.12981063,2.13439775,10.51047325,-0.10751228,0.02626720,-0.04153884,13.43174649,-13.90675354,51.13271141
14370570,-0.06041877,2.13260293,10.56610680,0.05681047,0.01954769,0.05070181,13.46097660,-13.19058800,50.82578468
14423570,-0.04965108,2.06201482,10.44108105,0.25961775,-0.00977384,0.00610865,13.27097416,-13.46828461,50.98655510
14476570,-0.03409772,2.36111760,9.80339432,0.12400565,-0.01771509,0.00794125,13.40251637,-12.56211758,51.27886772
14529570,0.14476578,2.35393929,9.42592716,0.12461651,-0.05925393,0.05619960,13.65098095,-12.28442049,51.74656868
14582570,0.02512464,2.64466715,9.66460991,0.05681047,-0.06658431,0.07391470,13.78252125,-12.10903311,51.61502647
14635570,0.05922236,2.57288265,9.93679428,-0.10812315,0.01954769,0.06780604,13.81175137,-12.50365448,51.81964302
14688570,0.06460622,2.18345070,9.98345375,0.08674286,-0.09529497,0.06352998,13.37328434,-11.90441418,52.09734154
14741570,0.01076770,2.32283282,9.87398243,0.00122173,-0.06719518,-0.01649336,14.25022030,-11.68518019,51.80502891
14794570,0.27996027,2.50229454,10.36809921,-0.10690141,-0.21991149,0.00122173,14.39637661,-12.09441757,51.87811088
14847570,0.39960137,2.10867500,10.17248726,-0.25106561,-0.22113320,-0.02809980,15.30254460,-12.22595787,51.43963814
14900570,0.44327039,2.44785762,8.74756145,0.00305433,-0.08735373,0.09346238,15.58024121,-12.85442829,50.91347313
14953570,0.65802616,1.39322090,10.60618687,-1.04457963,0.32559115,0.42699480,14.82022953,-14.25752735,50.31423759
15006570,0.00717847,2.04885459,9.19741249,-0.08185595,0.04031710,0.03115413,14.26483441,-14.38906765,50.43115806
15059570,0.39242291,2.17746878,8.93420219,0.10629055,-0.05131268,0.00855211,14.86407566,-14.72522736,49.94884300
15112570,0.30628130,1.68694007,9.84586716,-0.13500123,0.15210544,0.14721853,14.14791203,-15.26600456,50.28500175
15165570,0.36849469,1.64745831,9.83988571,-0.14966199,0.12828170,0.05925393,14.10406399,-14.75445747,49.61268425
15218570,0.26979074,1.61754811,10.21795082,0.22113320,-0.07391470,0.13744467,13.89944554,-14.76907349,50.29962349
15271570,0.57008994,1.98783743,9.80877876,0.15454890,-0.05803220,0.07086036,13.60713291,-14.19906521,49.94884300
15324570,0.64187467,1.67796683,10.23888874,-0.23823744,0.06719518,0.06047566,14.22098828,-14.09675598,49.94884300
15377570,0.58983076,1.59541440,9.72742271,-0.30237830,0.02382374,0.10812315,14.01636982,-14.57907105,49.96346092
15430570,0.50548381,1.52781725,9.58744240,-0.09834930,-0.10506882,0.14294246,14.33791447,-15.26600456,48.98421287
15483570,0.52941197,1.61276257,10.02951622,-0.29138273,0.10629055,0.09468411,13.69482708,-16.42063808,49.65653801
15536570,0.82612199,1.25324082,9.08554745,-0.12889256,0.04764749,0.20158553,13.91406155,-16.65448761,49.13037300
15589570,0.53300130,1.20179522,9.87936687,-0.32131511,0.22113320,0.12278391,13.13943386,-17.10757065,49.45191383
15642570,0.54317069,0.92123675,9.73818970,-0.10140362,0.06352998,0.19792034,12.99327755,-17.75065708,48.69190025
15695570,0.41515473,0.85363954,10.08574677,-0.30482176,0.13439035,0.12950343,12.54019451,-18.17451096,48.70652199
15748570,0.47916272,0.75553375,9.44327450,-0.00061087,-0.01466077,0.25350907,12.24788189,-18.33528233,48.15112495
15801570,0.27397817,0.97148603,10.19462109,-0.44959679,0.23457225,0.05803220,12.14557362,-19.35837555,47.99035454
15854570,0.44506499,0.01674976,9.47557735,-0.20830503,-0.01343904,0.21135938,12.48173046,-19.94299984,47.77112388
15907570,0.33080775,0.53898335,10.01336479,-0.36529744,0.10079277,0.08491027,11.64864064,-20.71762657,47.21572685
15960570,0.41156551,0.31884363,9.57966518,0.00610865,-0.11117747,0.22113320,11.85325909,-21.55071831,47.14265251
16013570,0.36251265,0.21415763,10.37767220,-0.42210788,0.19914205,0.09773844,11.50248623,-21.97456932,46.38263893
16066570,0.33320057,0.09571291,9.94636536,-0.22418755,-0.02443461,0.16920967,11.38556195,-22.52996254,46.96726417
16119570,0.42472604,-0.07597212,9.56112099,-0.07819075,0.09407324,0.18264872,10.69862652,-22.70535088,47.06957054
16172570,0.13878372,-0.02392823,10.53499985,-0.21502456,0.01466077,0.18997908,10.31862164,-23.04150772,45.65185737
16225570,0.19022940,-0.30987051,9.66640568,-0.26022857,0.04337143,0.13194689,10.53785610,-23.85998344,45.63723945
16278570,-0.00179462,-0.30089745,10.50449181,-0.36896262,0.16065755,0.10140362,9.54399395,-24.78076553,45.62262535
16331570,0.15493526,-0.75673014,9.43968582,0.02076942,0.01221730,0.19975293,9.73399639,-25.49693108,45.31569862
16384570,-0.14356937,-0.52941197,10.43210983,-0.33169982,0.11484267,0.09040806,8.88629055,-25.64308739,44.93569374
16437570,0.08554341,-0.75792658,9.81176949,-0.27733281,0.09773844,0.09407324,8.43320751,-26.31540489,44.77492332
16490570,-0.00478565,-0.72442704,9.92602634,-0.22235495,0.05864306,0.10751228,8.79859829,-26.62233353,44.71645546
16543570,0.01076770,-0.77467632,10.24068260,-0.37873644,0.11667527,0.08002335,8.69629002,-27.87927628,44.46799278
16596570,0.12023933,-1.36809647,9.15912724,-0.08918633,0.02687807,0.17776178,8.05320072,-27.98158455,44.04413795
16649570,-0.24346970,-0.80518490,10.93041420,-0.22785273,0.11728612,0.14294246,7.68781185,-28.90236855,43.13797188
16702570,0.07417750,-1.61754811,9.02453136,-0.05497787,0.09834930,0.07757989,6.82549000,-28.44928360,43.32797813
16755570,-0.29551360,-1.16650105,9.97507954,-0.25167647,0.24801129,0.12522738,6.02163410,-28.43466949,42.65565681
16808570,-0.35653058,-1.33698976,9.68674374,-0.07696902,0.12705997,0.10629055,5.61239338,-28.91698456,42.40719414
16861570,-0.43848476,-1.44646132,10.41296577,-0.21685717,0.17592919,0.06719518,5.68547154,-29.47237778,42.42180824
16914570,-0.42891344,-1.73360002,9.64307499,-0.03176499,0.05864306,0.12400565,5.27623654,-29.56007004,41.83718300
16967570,-0.55034918,-1.43389893,10.11027431,-0.21380283,0.07391470,0.02565634,5.17392826,-29.77930641,42.26103782
17020570,-0.64426744,-1.57148635,10.20299625,-0.11117747,0.06780604,0.03848451,4.41391468,-30.29084969,41.88102913
17073570,-0.86680001,-1.39262271,10.75693321,-0.25045475,-0.05253441,0.01343904,4.31160641,-30.61239433,41.70564079
17126570,-0.53778684,-2.31385946,9.46421146,-0.04764749,-0.13133603,0.02138028,4.45776272,-30.77316475,41.98333931
17179570,-0.48275200,-1.57208443,9.97388363,-0.28771752,-0.10995574,-0.10262536,5.46624089,-31.35779190,41.55948448
17232570,-0.17886350,-2.20020056,10.02413177,-0.28344145,-0.10629055,-0.11789699,5.62701130,-31.43087006,40.81408882
17285570,0.09332009,-1.79760802,9.94636536,-0.23640485,-0.17531833,-0.09834930,6.19702053,-32.10318565,40.66793251
17338570,0.25064817,-2.16909385,9.83689308,-0.13866641,-0.00794125,-0.07696902,6.29932881,-32.55627060,40.20023537
17391570,-0.35174492,-2.05124736,10.44167995,0.04337143,-0.13439035,-0.02687807,6.12394238,-32.48319244,40.03946113
17444570,-0.04007978,-2.55972219,9.15793037,-0.08002335,-0.08674286,-0.07513642,6.98626232,-32.48319244,40.12715721
17497570,-0.21595225,-2.24985147,9.90329456,-0.50090951,0.11972959,-0.14905111,7.07395649,-33.43320656,39.39637565
17550570,-0.20877378,-2.18943286,9.98046303,-0.43737951,0.01282817,-0.10384709,6.88395405,-34.26629829,38.79713631
17603570,0.07657032,-1.62771761,8.72423172,-0.24312437,-0.22785273,-0.07208210,7.48319340,-34.19322014,37.75942802
17656570,0.23509482,-2.46400905,5.78285408,0.31093040,-0.39095375,0.16920967,8.81321430,-34.01782990,38.37328148
17709570,0.12083755,-2.49451780,6.46660328,-0.05314527,-0.00366519,0.04520403,8.18474293,-34.44168472,37.93481636
17762570,0.23090738,-3.17826676,6.48514795,0.17470746,0.06902777,0.08552113,8.21397305,-33.72552109,38.65097999
17815570,0.32721850,-3.52283335,7.43031311,0.30360001,0.40927970,-0.05070181,7.11780262,-33.66705704,39.86407661
17868570,-0.49351969,-2.19780755,11.04646587,-0.27244589,0.63774329,-0.24129176,6.48933125,-33.62320900,39.54253197
17921570,-0.21415763,-1.78624201,10.09950638,0.20708331,0.07024951,0.08674286,6.15317250,-33.17012787,39.71792030
17974570,-0.39601216,-1.70907366,8.72542763,-0.33047810,0.51862454,-0.09101892,5.33469868,-32.99473763,39.46945381
18027570,-0.30568308,-1.85025012,8.92642498,0.60720003,-0.32986721,0.49968776,4.60391903,-33.66705704,39.70330238
18080570,-0.49351969,-1.92861509,7.85922623,-0.29199359,0.35124749,0.02809980,4.80853558,-32.92166328,39.74715233
18133570,-0.57726848,-1.07736838,8.82831955,0.44532079,-0.27550021,0.20586158,4.73545742,-32.33703613,40.09792518
18186570,-0.56231332,-2.11046982,9.40738201,-0.22235495,0.20891590,0.14966199,3.91698551,-31.54779243,40.37562370
18239570,-0.37567312,-0.75852478,7.46022320,0.36285394,0.04153884,0.14599679,4.25314236,-31.66472054,40.74101066
18292570,-0.30209386,-2.59023046,9.74656487,0.26450464,0.12767084,0.07635815,3.75621319,-31.56240845,40.22946739
18345570,-1.54396880,-1.66241348,10.94357395,0.50090951,0.17592919,0.25961775,3.18620396,-29.92546272,42.07103538
18398570,-0.16749759,-0.89491570,7.23290491,0.49602258,-0.09834930,-0.24923302,3.93159962,-28.91698456,43.15258598
18451570,-1.33878434,-1.79401863,11.95753288,0.33353242,0.19730946,0.10445795,3.27389813,-28.85852051,42.30488396
18504570,-0.60957158,-0.47497532,10.35912800,0.33353242,0.09224065,-0.20647244,3.61005688,-27.45542336,43.95644188
18557570,-0.33080775,-1.08933246,10.97288609,1.11605084,0.05497787,-0.15577063,3.47851467,-24.98538399,45.50570106
18610570,-0.67896342,0.89371932,11.25823021,1.20035017,-0.20463985,-0.04642576,4.34083653,-23.02689362,47.17188072
18663570,0.22372892,0.60239315,9.16630554,1.10139000,-0.18631390,-0.11423180,5.39316273,-19.57761002,49.33498955
18716570,-0.70528448,1.74735880,9.47258663,0.18264872,0.65973443,0.28771752,3.78544331,-18.75913525,49.65653801
18769570,-1.41176534,1.03250301,11.03450203,0.13255775,0.09529497,-0.15271631,3.23005009,-19.19760323,49.81730842
18822570,-1.07318091,1.16949201,11.32941818,-0.07941248,-0.10629055,0.04031710,3.40543652,-19.75299644,50.19731331
18875570,-0.51086766,0.90568340,9.90149975,1.00120819,-0.29382616,-0.11911872,3.39082241,-18.53990078,50.48962593
18928570,-0.84406817,1.23170543,9.30568790,0.88025677,0.41416663,0.08491027,2.73312092,-16.23063469,51.39579582
18981570,-1.36630177,1.37228382,11.00638580,-0.35796705,0.75258595,-0.11850785,0.93539906,-16.49371529,51.07424354
19034570,-1.66660094,1.67377949,9.26620579,0.31215212,0.30298916,-0.02138028,0.62847042,-16.33294392,52.03888130
19087570,-1.73060906,1.86939275,10.81974602,-0.65668011,0.34391710,-0.37934732,-0.76001072,-18.01373863,51.24963951
19140570,-2.11884451,1.00678015,10.48953629,-0.78862703,0.64385194,0.12644911,-1.41771221,-20.51300812,50.43115806
19193570,-2.19900417,0.95892370,10.92024517,0.88758713,0.29382616,-0.01649336,-2.47003841,-19.22683525,51.01578712
19246570,-2.56331134,1.20179522,9.55633640,0.39461893,0.35857788,-0.12400565,-3.37620449,-17.58988571,51.83425712
19299570,-2.41974187,1.15752792,11.46580791,0.19730946,0.22907446,-0.14660765,-4.41391277,-17.70681095,51.93657112
19352570,-2.13559413,2.08534503,8.36171913,0.02809980,-0.24312437,-0.02321288,-3.24466610,-17.64834881,51.77579689
19405570,-2.25224447,1.56311142,10.38544846,-0.40256017,0.24556783,-0.08674286,-3.53697490,-18.48143864,51.38117409
19458570,-2.20259333,2.02911353,9.14177895,-0.06597345,-0.08185595,-0.16493361,-3.62466716,-19.35837555,50.95732307
19511570,-2.32941294,1.60259306,10.15274620,0.04153884,0.15271631,-0.17409658,-3.27389431,-19.15375710,51.38117409
19564570,-2.20259333,2.18345070,10.18146038,0.72143185,-0.29321530,-0.18753563,-3.59543895,-18.42297554,51.84887504
19617570,-2.48913383,1.80717933,9.05264664,0.07208210,0.28405234,-0.08429940,-3.66851711,-17.70681095,51.04501533
19670570,-2.72901440,2.03449750,10.80239773,-0.04825835,0.11789699,-0.18814649,-4.42853069,-17.85296726,50.81116676
19723570,-2.63689065,2.29651141,9.12263680,0.08368853,0.08796459,-0.17654005,-4.09236812,-17.20988083,50.56270027
19776570,-2.59202480,1.73659110,10.04865837,-0.14233160,0.39828411,-0.06963863,-5.02776623,-17.85296726,50.51885414
19829570,-2.48913383,2.33479691,9.79860878,0.07269296,-0.11972959,-0.18509217,-4.96930599,-17.96989250,50.56270027
19882570,-2.47178578,1.79222417,9.44088173,-0.32192597,0.11972959,-0.12217305,-4.73545360,-18.70067406,50.50424003
19935570,-2.45383954,1.63968182,9.28833961,-0.28099802,-0.02809980,-0.06352998,-5.11546230,-19.38760662,49.90500068
19988570,-2.21874475,2.21635199,9.47916698,-0.13133603,-0.16615535,-0.09162978,-4.91084575,-20.46916103,49.15960121
20041570,-2.44845581,0.95952189,11.38923836,-0.08491027,0.00305433,0.27611110,-5.07161617,-21.15609551,48.67728615
20094570,-2.28694010,1.06360960,9.62213802,0.31642818,-0.07513642,-0.02626720,-4.56006908,-19.76761150,49.42268562
20147570,-2.33898401,1.10668039,12.50907898,-0.12400565,0.16676621,0.00244346,-4.80853176,-20.08915615,49.68576622
20200570,-2.49391937,1.25922287,11.01177025,0.09162978,0.00977384,0.13683382,-4.63314724,-20.49839211,49.02806663
20253570,-2.97607327,0.66759753,14.49930954,-0.42882740,0.60109138,0.15271631,-5.99239635,-21.00993919,49.18883705
20306570,-4.03370047,0.72681987,14.59801292,0.51251590,-0.29321530,0.43066001,-6.19701671,-20.17684937,49.74422645
20359570,-3.63589406,1.46680033,13.23709488,0.07941248,-0.06780604,0.08002335,-5.39316082,-17.76527405,50.92809486
20412570,-3.89013147,2.86959243,13.46680641,0.29932398,-0.75869465,0.19914205,-3.80005932,-16.63987160,51.61502647
20465570,-2.57527542,3.69092894,7.30110025,0.76235980,-1.18568945,0.11178834,-1.18386364,-13.74598122,53.23735618
20518570,-1.35732865,2.28215456,1.78265285,-0.20647244,-1.03847098,0.56138515,1.72464276,-11.15901852,53.14966774
20571570,-0.45643091,0.97746807,2.87497663,-1.43308985,-0.28588492,0.36163223,3.11312580,-12.98596954,52.33118629
20624570,-0.48634121,1.06121695,4.04686117,-0.32009339,-0.12950343,0.09285152,3.68313504,-15.67524147,51.16194343
20677570,-0.76689970,0.77766734,7.64387226,-0.18753563,0.29199359,-0.16065755,3.05466366,-15.29523563,51.43963814
20730570,-0.80219376,1.10189474,9.88594627,-0.23457225,0.26694813,-0.21319197,3.04004765,-16.43525314,50.85501289
20783570,-0.96071833,1.74137676,11.24866009,0.04398230,-0.09224065,-0.17592919,2.60157872,-17.06372452,51.13271141
20836570,-0.84885383,1.44167554,10.45304585,-0.37934732,-0.11606439,-0.06963863,3.12774182,-17.22449589,51.00116920
20889570,-1.02951193,1.37168550,10.01156998,-0.02993240,-0.13439035,-0.03481932,2.67465687,-17.04910946,51.00116920
20942570,-1.13958180,0.90329051,9.54257679,-0.31031954,-0.03726278,0.04581489,2.76235104,-17.91143036,50.78193855
20995570,-1.39082813,0.85124665,10.07797050,-0.35491270,0.15760322,-0.04398230,2.86466122,-19.06606388,50.38731575
21048570,-0.77527452,0.83330047,9.04367256,0.27061331,-0.11850785,0.07635815,3.28851414,-18.64221001,49.91961479
21101570,-0.78544402,1.20777726,9.93739223,-0.13072516,0.06597345,-0.06047566,2.86466122,-18.59836388,50.16808128
21154570,-0.77706915,1.13599253,9.64726257,-0.05681047,-0.02260201,-0.00488692,3.23005009,-19.25606632,50.37269783
21207570,-0.91585284,0.59880388,10.25623512,-0.27794370,0.04337143,-0.04948008,3.15697193,-19.37299156,50.54808616
21260570,-0.87517494,0.82851481,9.11426163,0.02076942,0.01221730,0.02504547,3.55159283,-18.89067555,50.06577110
21313570,-1.07557368,0.81116694,10.19103241,-0.09957103,0.01099557,-0.02443461,3.74159718,-20.10377121,50.34346962
21366570,-0.88295162,0.75852478,10.59900761,-0.16737707,0.00855211,-0.07024951,3.81467533,-20.42531490,50.18269539
21419570,-0.80937225,0.63290161,9.53898716,0.16982055,-0.08185595,0.02809980,3.36159230,-19.94299984,50.46039390
21472570,-0.71605217,0.94695961,9.92961597,-0.08429940,-0.05009095,-0.04031710,3.55159283,-20.35223675,49.89038277
21525570,-0.71365935,0.60837519,9.79980469,-0.00610865,0.08735373,0.00916298,4.18006420,-20.22069645,49.34960747
21578570,-0.82193464,0.64606208,10.10967541,0.01404990,-0.02199115,0.02076942,4.26775837,-20.38146782,49.93422890
21631570,-0.74955171,0.88474619,9.55872822,-0.01954769,0.00366519,-0.00733038,3.75621319,-20.35223675,49.29114342
21684570,-0.85663050,0.83868438,10.04566765,-0.05314527,-0.01466077,0.00305433,4.10698605,-20.24992752,49.48114586
21737570,-0.72562349,0.79680991,9.72562790,0.04825835,-0.01527163,0.02199115,3.78544331,-20.48377800,49.75884437
21790570,-0.81655073,0.70049882,9.70349407,-0.05864306,0.06230826,0.01099557,4.03390789,-20.61531830,49.15960121
21843570,-0.78484583,0.84586281,9.69332504,0.11362094,-0.11239920,0.03115413,4.00467778,-20.96609306,50.15346718
21896570,-0.72203422,0.48514479,9.33798981,-0.15210544,0.06414085,0.04581489,4.22391224,-20.76147461,49.21806907
21949570,-0.74835533,0.85962152,9.88893795,-0.03909538,-0.06963863,-0.00916298,4.91084385,-21.68225670,48.99883079
22002570,-0.74356961,0.27338001,9.75553799,-0.08796459,0.13316862,0.00183260,4.60391903,-20.84916687,49.14498710
22055570,-0.55692947,0.66101724,9.80758190,0.22113320,-0.07635815,0.07330383,4.58930111,-21.09763336,49.53960991
22108570,-0.67058855,0.55334020,9.53659439,-0.03726278,0.19486602,0.09712757,4.57468701,-21.76995087,49.39345360
22161570,-0.96969140,0.62273210,11.09970570,-0.11850785,0.02015855,0.01710423,4.18006420,-21.52148628,50.15346718
22214570,-0.82492566,0.46420762,10.09053326,0.11667527,0.05558874,0.00366519,4.69161320,-20.93686104,49.17421532
22267570,-0.78065842,0.45284170,10.09412193,0.22235495,-0.07452556,0.04214970,4.26775837,-20.74685860,49.36422539
22320570,-0.76570326,0.69690961,9.78903770,0.03481932,0.05009095,0.01343904,4.38468457,-20.39608288,50.09499931
22373570,-0.83748794,0.76630145,10.20778179,0.02626720,-0.06291912,0.00549779,3.99006367,-20.58608627,50.35808372
22426570,-0.71964145,0.59042901,9.96969604,0.00244346,0.05925393,0.00305433,4.28237629,-20.20608139,50.08038521
22479570,-0.89730847,0.78604221,9.99302578,0.03909538,-0.01038471,-0.05009095,4.35545063,-20.17684937,50.08038521
22532570,-0.82672024,0.72382879,9.85783100,-0.04214970,-0.08002335,-0.05864306,4.56007099,-20.64455032,50.18269539
22585570,-0.51385868,1.00558376,9.38943577,0.04337143,-0.07269296,-0.05742133,8.55013180,-20.17684937,50.16808128
22638570,-0.23688945,0.87936229,9.51805019,0.13866641,0.03481932,0.00427606,4.95469189,-19.91376781,50.72347069
22691570,-0.15014961,0.65324062,11.41735268,0.06230826,0.27000245,0.05497787,4.66237927,-19.92838478,51.03040123
22744570,0.49531427,1.45304167,13.29990578,0.12705997,0.57360250,0.04886922,3.68313504,-18.67144203,50.86962700
22797570,-2.42931318,1.78444755,19.13779449,0.08307768,0.94134331,0.69333202,0.64309025,-18.39374542,51.19117164
22850570,-4.37886572,1.04865456,19.44467545,-0.33536503,-0.52351147,0.57848936,-0.89155102,-18.29143524,50.37269783
22903570,-2.54596329,0.97686982,10.84726334,-0.99632114,-0.67073005,0.25961775,0.38000584,-19.02221680,49.48114586
22956570,-1.42851520,1.97946250,9.12802029,-1.40315747,-0.47036624,0.17776178,1.24232769,-22.70535088,47.87343025
23009570,-0.07896315,0.02213361,2.35992146,-0.30543262,-0.67806041,0.28893927,3.21543598,-24.09383202,47.55188560
23062570,-0.27457643,0.09152547,6.89132977,-1.30847335,0.09040806,-0.11056660,2.99619961,-26.09617043,44.73107338
23115570,0.41814575,-0.17587246,3.81296301,-0.33475414,-0.38179076,0.22846359,3.47851467,-27.14849472,44.46799278
23168570,0.42412782,-1.31545436,5.10568571,0.00549779,0.15821409,0.08735373,3.61005688,-27.60157967,45.18415642
23221570,-0.26859432,-1.01156580,8.58125973,-0.02138028,0.12583824,0.16187929,2.55773258,-26.59310150,45.27185249
23274570,-0.52402812,-2.31266308,7.19641399,-0.00855211,0.39095375,-0.10201450,2.14849758,-26.34463692,44.83338356
23327570,-0.95234340,-0.58205414,12.47258759,0.30115655,-0.21502456,0.05925393,1.82695294,-26.49079132,44.80415153
23380570,-0.61914289,-0.75194454,9.77168941,0.02748894,0.20280725,-0.11850785,2.30926800,-26.38848305,45.15492439
23433570,-0.63589263,-0.05802595,11.19362450,0.01160644,0.05742133,-0.04764749,2.07541943,-26.06694031,45.28646660
23486570,-0.60059845,-0.82193464,10.07617569,-0.10567969,0.09651671,-0.02015855,2.58696461,-26.22771263,45.33031273
23539570,-0.56530440,-0.77886385,10.03669453,0.00733038,-0.09896017,0.06536258,2.16311169,-26.62233353,45.09646416
23592570,-0.69750780,-0.38524446,10.28794098,-0.10201450,-0.06414085,-0.00183260,1.94387722,-26.98772430,45.11108208
23645570,-0.61136615,-1.22632170,9.28534889,-0.07819075,-0.03909538,0.04825835,1.73925686,-27.14849472,44.54107094
23698570,-0.49770710,-0.80697942,9.33500004,-0.04520403,0.00977384,-0.03543018,1.95849324,-27.29465103,44.73107338
23751570,-0.68853474,-1.04386890,9.91884899,-0.05925393,-0.00610865,-0.00733038,1.73925686,-27.09003258,44.61415291
23804570,-0.58923256,-0.81236327,10.04806137,-0.07024951,0.04825835,-0.04764749,2.13387966,-26.90003014,44.62876701
23857570,-0.44087756,-1.17966151,9.43370342,0.10934488,-0.05192355,0.00488692,2.20695782,-27.33849907,44.76030922
23910570,-0.56769717,-1.00977123,10.43091202,-0.10262536,0.06108652,-0.07269296,2.32388401,-27.36772919,44.00029564
23963570,-0.40977088,-1.07138634,9.64905739,0.00122173,0.04825835,-0.03665191,2.09003353,-27.06080246,44.51183891
24016570,-0.36969110,-0.89491570,9.99900818,0.04581489,-0.02260201,-0.00977384,2.70389080,-27.11926270,44.57029915
24069570,-0.38763726,-0.96550399,9.95533848,-0.00610865,-0.01527163,-0.00183260,2.39696217,-26.90003014,44.87722969
24122570,-0.53240305,-0.91046906,10.39681435,-0.15515977,0.07391470,-0.04764749,2.51388455,-27.07541657,45.18415642
24175570,-0.46420762,-1.08993065,9.52343369,0.00183260,0.03298672,-0.02993240,2.35311413,-26.98772430,43.92721367
24228570,-0.45164526,-1.10010028,9.62154007,-0.02687807,0.04031710,0.01160644,2.58696461,-27.10464859,44.36568260
24281570,-0.48215377,-0.90927267,9.71785069,0.08185595,0.00855211,-0.00916298,2.61619282,-27.03157043,44.10260200
24334570,-0.48514479,-0.95174521,10.03430176,-0.01221730,0.01771509,-0.01954769,2.51388455,-26.79771996,43.69336510
24387570,-0.47676992,-1.00498557,10.02592659,0.00000000,0.01099557,-0.03115413,2.82081318,-27.35311317,44.20491218
24440570,-0.46360940,-0.92004031,10.11864948,0.01282817,-0.00061087,0.00183260,2.58696461,-27.10464859,44.35106849
24493570,-0.44805604,-1.04147613,9.66221809,-0.03359759,0.02565634,0.00061087,2.29465008,-27.25080490,44.39491463
24546570,-0.45702910,-0.98225373,9.85484028,0.08552113,-0.02382374,0.04153884,2.36772824,-27.41157723,44.02952385
24599570,-0.49292147,-1.08933246,9.91226768,-0.12583824,0.07391470,-0.02932153,2.48465443,-27.07541657,44.71645546
24652570,-0.38045880,-0.99541420,9.85005474,-0.02076942,0.03604105,-0.02871067,2.16311169,-27.11926270,43.54720878
24705570,-0.32362923,-1.11984110,9.16391182,0.06658431,-0.01282817,0.04459316,2.55773258,-27.11926270,44.54107094
24758570,-0.73938221,-1.01635146,10.60199928,-0.11178834,0.10567969,-0.02993240,2.09003353,-27.51388550,43.81029320
24811570,-0.40259245,-1.00857472,9.50130081,0.07330383,-0.04459316,0.01649336,2.07541943,-26.94387627,44.04413795
24864570,-0.51086766,-1.04087782,10.25085258,0.00549779,-0.00977384,-0.00733038,2.48465443,-26.92926216,44.46799278
24917570,-0.49531427,-0.97208416,10.13480091,-0.05925393,0.04459316,-0.01893682,1.84156895,-27.07541657,44.42414284
24970570,-0.47736815,-1.01455677,9.73938656,-0.02015855,0.00183260,-0.00488692,2.51388455,-27.03157043,44.17568016
25023570,-0.49411789,-0.98584294,10.08933735,-0.03359759,0.02076942,0.00305433,2.26541996,-26.98772430,43.32797813
25076570,-0.40917265,-1.04805624,9.18126106,-0.00733038,-0.01466077,-0.02076942,2.32388401,-27.19234085,43.72259712
25129570,-0.55872405,-0.97328067,9.89312458,0.04581489,-0.05009095,0.01527163,2.92312146,-27.39695931,44.26337242
25182570,-0.32303104,-1.33100772,10.35135174,-0.15943582,0.00549779,0.00122173,2.68927288,-27.26542091,43.44489860
25235570,-0.38584265,-1.30528474,9.47258663,-0.06475171,-0.00855211,0.00427606,2.67465687,-27.35311317,44.02952385
25288570,-0.51026946,-0.93619192,10.17488098,0.03665191,-0.12644911,0.00061087,3.01081562,-28.18620300,43.15258598
25341570,-0.17587246,-1.17308128,9.28953552,-0.04886922,-0.06536258,0.00549779,3.43467045,-28.43466949,43.66413688
25394570,-0.12502499,-1.20000064,8.89113045,-0.09101892,-0.08918633,0.05253441,3.40543652,-28.74159622,43.50336647
25447570,-0.16211374,-1.00857472,7.97288465,-0.17531833,-0.24129176,0.11606439,3.82929135,-28.56620979,43.38643837
25500570,0.13459629,-1.04267251,6.65144920,-0.22540927,-0.57482415,0.17959438,4.44314671,-28.63928795,43.41566658
25553570,0.83270234,-1.74975157,0.20697917,1.13559854,-0.12522738,0.39645153,5.64162731,-27.28003502,44.86261177
25606570,-0.49172506,0.75852478,6.14596462,0.07635815,0.16126841,-0.14049901,4.66237927,-27.16311073,44.43876457
25659570,0.45762736,-0.84945208,9.34576702,0.32314771,-0.62858033,-0.01527163,5.29085064,-26.72464180,45.00876808
25712570,0.06340980,-1.43509543,3.45942330,1.57786489,-0.14782940,-0.14721853,7.61473370,-22.09149361,48.19497108
25765570,-0.49950173,2.35453749,8.54476929,1.52349794,0.62674773,-0.43799040,7.24934292,-19.48991489,50.35808372
25818570,0.73100734,4.44287348,15.46361637,-0.97188658,1.08856189,-0.93706727,4.57468701,-19.27068138,50.84039879
25871570,-1.16709924,2.43948269,19.59960938,1.27854085,1.78616989,0.10262536,1.73925686,-18.83221340,51.95118522
25924570,-1.79760802,2.13200521,15.05683613,1.03969264,0.00488692,-0.12889256,1.65156460,-16.96141529,52.08272743
25977570,-1.55174565,1.93699002,16.19043541,0.23457225,-0.07941248,-0.20219639,1.08155537,-16.05524731,53.54428673
26030570,-0.69092757,2.30548453,10.04267693,1.28403866,-0.96577793,-0.00794125,3.81467533,-13.58520889,53.39813042
26083570,-0.41395834,2.40658140,9.69452190,0.21624629,-0.32009339,-0.10812315,5.13007832,-12.25518894,53.38351250
26136570,0.02811567,2.24925327,8.22891712,-0.71715575,-0.08002335,-0.03543018,5.68547154,-12.83981323,53.22274208
26189570,-0.27278176,2.47358036,10.77009487,-0.49174652,0.04398230,-0.08307768,5.99240017,-15.51447010,53.58812904
26242570,-0.13280165,2.25104785,9.99661541,0.05314527,-0.22113320,-0.15943582,6.43086911,-15.26600456,53.09119987
26295570,-0.05802595,2.02313161,9.83210850,0.06291912,0.01527163,-0.02015855,6.50394726,-14.22829628,54.18737221
26348570,-0.02691926,2.31326151,9.23928642,-0.05253441,-0.18692476,-0.05253441,7.38088322,-14.21368027,53.42735863
26401570,-0.06999007,1.89152634,9.68913746,-0.23884831,0.01954769,-0.01466077,7.43934727,-14.49137688,53.32505226
26454570,-0.20159532,2.01655126,9.31765175,0.18325956,-0.25045475,-0.04703662,7.92166043,-14.49137688,53.73428917
26507570,-0.16211374,2.09671092,9.92124081,0.00244346,-0.04092797,-0.04948008,8.37474537,-14.46214676,53.80736732
26560570,0.09272188,2.23609281,9.47976494,-0.17348573,-0.02809980,-0.07269296,8.30166722,-14.69599628,53.31043815
26613570,0.01076770,1.79222417,10.24307632,-0.28588492,0.13622294,-0.10567969,7.79012203,-15.30985165,52.81350136
26666570,0.25663024,1.87716937,8.96770096,0.06658431,-0.08552113,-0.05619960,8.85706044,-15.28062058,52.66735267
26719570,0.15014961,2.01714945,9.88834000,-0.07024951,-0.01160644,-0.03726278,9.16398907,-15.25138950,52.44811439
26772570,0.21894327,2.06261301,9.16152000,0.08307768,-0.05864306,-0.01832596,8.68167210,-15.47062302,52.06810951
26825570,0.12203396,1.95074868,9.49232674,0.00427606,0.04948008,-0.04031710,8.76936817,-15.38292885,51.70271492
26878570,0.28534412,2.24686027,9.53898716,0.07024951,0.00610865,-0.03909538,9.35399151,-15.06138611,53.20812797
26931570,0.21774687,1.91246355,9.80877876,-0.00610865,-0.00305433,-0.03115413,9.26629734,-14.91522980,52.05349541
26984570,0.18783656,1.96630204,9.91466141,0.01649336,0.05497787,-0.00488692,9.29552937,-14.59368610,52.08272743
27037570,0.13280165,1.88315141,9.84885883,-0.02199115,0.03481932,-0.02321288,9.66091824,-15.29523563,52.74042702
27090570,0.20159532,1.94416833,9.21475983,0.10751228,-0.08796459,0.02687807,9.38322163,-15.60216332,52.62350273
27143570,0.07776674,2.20139670,10.05823040,-0.12339477,0.05192355,-0.04398230,9.66091824,-15.47062302,52.49196052
27196570,0.15373886,1.79700994,9.39661407,0.02809980,0.02932153,0.00244346,9.04706478,-15.10523319,52.60888481
27249570,0.10169496,1.85922313,9.87757206,0.02382374,-0.07757989,-0.01832596,9.45629978,-15.13446426,52.30195808
27302570,0.22193430,2.03330112,9.59342480,-0.04214970,0.00122173,-0.04153884,9.06167889,-15.28062058,53.47120857
27355570,0.22372892,2.03808665,9.58026409,0.10079277,0.04214970,0.00488692,9.04706478,-15.32446671,52.37504005
27408570,0.15553348,2.00039983,9.97747231,-0.14905111,0.06841691,0.00000000,8.84244442,-15.55831718,51.86348915
27461570,0.12023933,1.77128696,9.56889725,-0.03726278,0.02993240,0.00427606,8.98860073,-15.48523808,52.33118629
27514570,0.11964113,1.94536483,10.16650581,0.00916298,0.01099557,-0.00122173,9.19321919,-15.60216332,52.88658333
27567570,0.16989039,1.86819625,9.56650448,-0.04337143,0.04153884,-0.03481932,9.09091091,-15.93832207,52.09734154
27620570,0.15433706,1.79760802,9.65264606,0.01343904,0.05497787,0.01099557,9.03244686,-15.63139534,52.28734398
27673570,0.10648061,1.93100798,9.63649559,0.09651671,-0.02748894,0.00244346,9.23706532,-15.55831718,52.52119636
27726570,-0.02273181,2.03090811,10.11027431,-0.01282817,0.04886922,-0.02809980,9.29552937,-15.67524147,52.50658226
27779570,0.12203396,1.91665089,9.52223778,0.01343904,-0.02443461,-0.02626720,9.33937550,-15.64601040,52.30195808
27832570,0.02632105,1.95433784,9.92662525,-0.04214970,0.03543018,-0.02260201,9.54399395,-15.79216671,52.06810951
27885570,0.19022940,1.91306174,9.76510906,-0.03543018,0.02748894,-0.02748894,9.51476193,-16.18678856,52.18502998
27938570,0.17108682,1.74436784,9.75194836,-0.03970624,0.07696902,-0.00488692,9.17860318,-16.11370945,52.05349541
27991570,0.11425728,1.81316137,9.45284557,0.16798794,-0.01527163,0.00733038,9.09091091,-15.35369873,52.62350273
28044570,0.15792631,2.04885459,9.89312458,0.03665191,0.04703662,-0.00366519,8.81321430,-15.64601040,52.95965767
28097570,0.10827523,2.10030007,9.27996445,0.08857546,0.02504547,0.01771509,9.28091336,-15.66062546,52.76965904
28150570,0.00538385,2.04406881,9.74596691,-0.02015855,0.08124508,0.00000000,9.01783276,-14.95907688,52.50658226
28203570,-0.03170490,1.93340075,9.73220825,-0.03115413,0.01771509,-0.01466077,9.12014103,-15.29523563,52.49196052
28256570,0.05084748,2.05364013,9.52343369,0.11728612,-0.02015855,0.02443461,8.40397549,-15.10523319,52.33118629
28309570,-0.12083755,1.82512546,10.06660557,-0.09040806,0.10873401,-0.01527163,8.68167210,-15.52908611,51.74656868
28362570,0.01615155,2.03629208,9.89671516,0.03604105,0.02687807,0.01404990,8.81321430,-15.63139534,52.34580803
28415570,-0.11784652,2.01595306,9.98704433,-0.05986479,0.08674286,-0.01527163,8.50628567,-15.74831963,52.27272987
28468570,-0.00717847,2.04825616,9.31166935,0.07330383,0.00183260,-0.01954769,8.55013180,-15.23677349,52.34580803
28521570,-0.20578276,2.02851534,9.66161919,-0.04642576,0.10323622,0.04153884,8.56474781,-15.07600212,52.44811439
28574570,-0.22671995,1.82512546,9.87697411,-0.01221730,0.00610865,-0.03420845,8.60859394,-14.95907688,52.72581291
28627570,-0.08614162,1.91425800,10.10189915,0.00671952,0.00122173,-0.05864306,8.36012936,-15.10523319,52.78427315
28680570,0.16570295,2.00877452,9.40618515,0.00061087,0.03909538,-0.03909538,8.90090657,-15.11984825,52.60888481
28733570,-0.12143575,1.93938279,10.05882835,-0.04092797,0.02748894,0.00000000,8.94475460,-15.52908611,52.47734642
28786570,0.08374880,2.03030992,9.54496956,-0.03726278,0.03115413,-0.01954769,8.88629055,-15.76293469,52.11195564
28839570,-0.09451650,1.93100798,9.58146000,-0.00733038,0.11545353,0.03787364,8.53551770,-15.52908611,52.18502998
28892570,-0.22013968,1.81017029,9.77168941,-0.07941248,0.09468411,0.04459316,8.33089733,-15.67524147,52.37504005
28945570,-0.24167509,1.80598295,10.07258701,0.01466077,0.06414085,0.05436701,7.98012448,-16.37679100,52.60888481
28998570,-0.26321048,1.92323124,9.63170910,0.03176499,0.02199115,0.02993240,7.49780751,-15.89447594,52.72581291
29051570,-0.45284170,1.87178552,9.89252758,-0.06658431,-0.02076942,-0.01038471,7.58550358,-16.04063225,52.82812309
29104570,-0.24466611,1.59720910,9.89013386,-0.19853121,0.03054326,-0.02871067,7.64396382,-16.34755993,53.01812553
29157570,-0.26081768,1.71385920,9.63290596,-0.00366519,-0.00794125,-0.00061087,8.17012692,-16.36217594,52.97427559
29210570,-0.21176480,1.79760802,9.92004395,-0.02565634,-0.03909538,-0.06536258,7.71704388,-16.68371868,51.86348915
29263570,-0.11605190,1.56969166,9.65324497,-0.15821409,0.03420845,-0.00366519,7.96550846,-16.74218082,52.56504249
29316570,-0.10289138,1.75154614,9.80698299,-0.13194689,-0.00916298,-0.01343904,7.89243031,-17.75065708,52.49196052
29369570,-0.26141587,1.42492592,9.82672501,-0.19914205,0.05375614,-0.03909538,7.96550846,-18.48143864,52.41888618
29422570,-0.13698909,1.41056895,9.66879749,-0.10934488,-0.02932153,-0.03298672,8.30166722,-18.37912846,51.60041237
29475570,-0.24945177,1.34057903,9.81117058,-0.06047566,-0.00855211,0.02260201,8.90090657,-18.62759495,51.90733909
29528570,-0.29431719,1.26400864,10.21196938,-0.06963863,0.01588250,-0.05864306,8.30166722,-19.54837799,51.54194450
29581570,-0.11246267,1.32741845,9.89671516,0.05864306,-0.01282817,-0.00488692,8.74013615,-18.91990662,51.58579445
29634570,-0.35653058,1.21854496,10.70010567,-0.04398230,0.08429940,0.00855211,8.43320751,-18.86144543,51.79041481
29687570,-0.40259245,1.29810619,12.80459213,-0.35735616,0.34636059,-0.02260201,7.64396382,-19.08067894,51.41040993
29740570,-0.59700930,0.79142606,17.16072655,-0.12400565,0.13988814,0.13194689,6.95703221,-19.98684692,51.14732551
29793570,0.00957129,1.44047928,11.41436195,0.43249258,-0.02871067,0.10018190,7.76089001,-18.39374542,51.39579582
29846570,-0.75673014,2.13918328,15.91825199,-0.72754049,-0.07147123,0.02993240,7.22011090,-19.53376293,49.96346092
29899570,-0.35234314,0.69212395,10.25204754,-0.78251839,-0.07452556,0.15088372,7.77550411,-20.29377461,49.49575996
29952570,-0.12502499,1.81136680,12.07777119,-1.14964831,-0.69760811,0.10812315,7.51242543,-22.85150528,47.91728020
30005570,0.36011982,0.18424734,8.52802086,-0.55283302,-0.30543262,0.18753563,8.15551091,-23.97690773,46.23648262
30058570,0.33320057,1.06480610,10.59482002,-1.09039438,-0.33047810,0.24312437,8.17012692,-26.66617966,44.29260826
30111570,-0.12681960,-0.82911307,7.82931566,-0.78801620,0.14538592,0.11789699,7.98012448,-28.06927872,43.28412819
30164570,-1.13898361,-0.72023964,9.19083214,-0.70493847,-0.44226640,0.00671952,8.46243954,-31.81087303,41.20871162
30217570,-0.59042901,-1.13300157,8.53220844,-1.13743103,-0.14233160,-0.17898352,9.20783520,-33.27243614,38.92867470
30270570,1.25383914,-0.84765744,3.18245411,0.09285152,-0.87659162,-0.01527163,10.56708622,-33.69628716,38.72405815
30323570,2.53220463,-1.98903382,0.50189453,0.21930061,-0.04642576,0.12889256,11.26863575,-33.52090073,39.25021934
30376570,1.33280230,-2.93419886,3.89910460,0.21013764,0.70188415,0.13622294,9.63168812,-33.69628716,40.71178245
30429570,-0.07118648,-2.24446774,8.33420086,0.34452799,0.72326446,0.07819075,7.92166043,-33.50628471,40.15638923
30482570,-0.65443701,-2.71884465,9.75314522,0.18081611,0.76907933,0.03359759,6.76702786,-32.64396477,40.34639168
30535570,-0.74656069,-2.19302201,11.57946682,0.46059239,0.11239920,0.14172073,5.39316273,-32.41011429,40.41946983
30588570,-0.10408779,-2.06919336,10.07976437,-0.08307768,0.14110987,-0.07941248,5.36392880,-31.82549095,41.13563728
30641570,-0.27098715,-2.05364013,10.19761276,0.46914449,-0.18448131,0.19120082,5.78778363,-32.13241959,41.63256645
30694570,-0.25663024,-2.08713961,9.69571686,-0.16371189,0.23212878,-0.04825835,5.32008457,-31.79625893,41.50102424
30747570,-0.13459629,-2.42153668,9.33559799,0.24984388,-0.13316862,0.19303341,5.36392880,-32.16164970,41.67641258
30800570,-0.39840496,-2.04526520,9.65085220,-0.17226399,0.18631390,-0.01954769,4.72084332,-31.72318077,41.70564079
30853570,-0.44805604,-1.93938279,10.12821960,0.08124508,0.05436701,0.06108652,4.64776516,-31.72318077,41.42794990
30906570,-0.44985068,-1.61096776,10.23529911,-0.16737707,0.10690141,-0.05742133,4.66237927,-31.95702934,41.80795097
30959570,-0.30628130,-2.26420856,9.00000381,0.13316862,-0.08063421,0.02993240,4.48699284,-31.28471375,41.38409614
31012570,-0.51206404,-1.69890416,10.61456108,-0.15088372,0.14538592,-0.08918633,4.35545063,-31.60625649,41.29640770
31065570,-0.48634121,-2.04047942,9.62871838,0.03054326,-0.00671952,-0.01404990,3.91698551,-32.01549339,41.38409614
31118570,-0.34277183,-2.22891426,9.44865799,0.10079277,-0.09957103,0.03970624,4.20929814,-31.69394875,41.47179603
31171570,-0.47856450,-1.88075852,9.87517929,-0.16737707,0.01710423,-0.12461651,4.88161373,-31.44548416,41.73487282
31224570,-0.18185452,-1.95015049,9.34457016,0.05314527,0.00855211,0.00610865,4.63314915,-31.92779923,41.31102180
31277570,-0.25902304,-1.87537479,9.41994476,-0.04581489,0.09040806,-0.02260201,4.77930546,-32.45396233,40.82870292
31330570,-0.46121657,-1.75752819,10.12403297,-0.03543018,0.09040806,-0.02993240,4.35545063,-32.08857155,41.69102669
31383570,-0.41096732,-2.18165612,9.42114162,0.03848451,-0.01710423,0.02321288,4.20929814,-32.32242012,40.72639656
31436570,-0.50069815,-2.15234399,9.86680508,0.04031710,0.00794125,0.02932153,4.22391224,-31.97164536,41.26717186
31489570,-0.48693940,-1.93758810,9.32901764,-0.04031710,0.02748894,-0.01282817,4.19468022,-32.07395554,41.17947960
31542570,-0.48335019,-1.95732892,9.79322433,-0.02871067,0.02809980,0.00061087,4.31160641,-32.61473465,40.74101066
31595570,-0.47198430,-2.14456749,9.53838921,0.05070181,0.02382374,0.02382374,4.34083653,-32.36626625,40.27330971
31648570,-0.50009996,-2.00877452,9.64965630,-0.01710423,-0.00366519,0.02076942,4.10698605,-31.98626328,41.19409752
31701570,-0.57068825,-2.18763804,9.73400307,-0.07574729,0.11484267,-0.02015855,3.87313557,-32.26395798,40.88716698
31754570,-0.60717875,-2.09013057,9.74177933,0.12889256,-0.04214970,0.04948008,3.74159718,-32.22011185,40.58024025
31807570,-0.76271224,-2.03449750,9.80638599,-0.05131268,0.01160644,-0.02015855,3.93159962,-32.22011185,41.32563591
31860570,-0.59162545,-2.24805689,9.48096180,-0.02199115,-0.00733038,0.00244346,4.06314183,-31.79625893,41.20871162
31913570,-0.49651071,-2.14337087,9.83210850,0.09224065,0.00610865,0.01588250,3.85852146,-32.16164970,40.40485191
31966570,-0.62512487,-2.20438790,9.90508938,-0.11056660,0.07819075,-0.03787364,3.69774914,-32.62934876,40.49254799
32019570,-0.51804608,-2.00817657,9.65085220,-0.02932153,0.05070181,-0.03237586,3.82929135,-32.10318565,40.77024269
32072570,-0.67537421,-2.18943286,10.10788155,-0.02687807,0.04398230,0.01893682,3.68313504,-32.36626625,40.55100822
32125570,-0.58145589,-2.05722928,9.74776077,0.02871067,0.04703662,-0.00855211,3.43467045,-32.04472351,40.58024025
32178570,-0.62931234,-1.83948243,9.49591732,0.02199115,-0.03848451,0.00427606,3.59544087,-31.70856476,39.51329994
32231570,-0.65443701,-2.05663109,9.75613594,-0.09346238,0.06047566,-0.02076942,3.71236515,-32.41011429,39.77638054
32284570,-0.48873404,-2.33060932,9.36132050,0.00916298,-0.00855211,0.01099557,4.10698605,-32.13241959,40.78486061
32337570,-0.66580284,-2.09252334,9.79442120,-0.05986479,0.04825835,-0.00549779,3.39082241,-31.81087303,40.08331108
32390570,-0.53060848,-2.05483651,9.46600723,0.00733038,-0.01832596,0.00977384,3.62467099,-32.19087982,40.69716453
32443570,-0.58863437,-2.11465693,9.58265591,-0.06597345,0.03604105,-0.03543018,3.59544087,-32.04472351,40.63870430
32496570,-0.51206404,-2.47537494,9.29133129,0.03054326,-0.04764749,0.02871067,3.23005009,-32.16164970,40.24408150
32549570,-0.61675000,-1.95673072,9.82792091,-0.15332718,0.09407324,-0.01527163,3.28851414,-32.77550507,40.20023537
32602570,-0.62991059,-2.25523543,9.15314579,0.04337143,0.02504547,0.02748894,3.15697193,-32.64396477,40.56562614
32655570,-0.63409799,-2.17627215,9.57787132,0.03543018,0.02626720,0.00061087,3.11312580,-32.92166328,40.25869560
32708570,-0.73399836,-2.33718944,9.71127033,0.02687807,-0.01588250,0.00122173,3.09851170,-32.48319244,40.06869316
32761570,-0.70887369,-2.09551430,10.29153061,-0.15638150,0.06352998,-0.05803220,3.71236515,-32.48319244,40.01023292
32814570,-0.52642095,-2.26301193,9.27517891,-0.01954769,-0.03359759,0.02260201,3.68313504,-32.55627060,40.01023292
32867570,-0.63529438,-2.34975195,9.56052303,0.02260201,-0.05619960,0.00427606,3.28851414,-32.98012352,40.37562370
32920570,-0.57128644,-2.37667108,9.34157944,-0.09651671,-0.03481932,-0.02138028,4.31160641,-32.71704292,39.76176643
32973570,-0.24586253,-2.35154629,8.30967522,-0.11239920,-0.16798794,0.04031710,3.66851902,-33.14089394,39.51329994
33026570,0.54676002,-2.56091857,6.43848801,0.12522738,-0.41783181,0.14660765,4.12160397,-32.65857887,39.73253822
33079570,0.39302111,-2.19481659,4.20359135,0.34941491,0.16004670,0.24617870,4.35545063,-32.42473030,40.12715721
33132570,0.34217364,-1.83828604,5.45085001,-0.15332718,-0.10812315,0.47036624,3.69774914,-33.38935852,40.11253929
33185570,-0.00299103,-1.50329077,4.79701138,0.84543753,-0.22479840,0.16310102,4.23852825,-32.29319191,41.57409859
33238570,-0.86680001,0.11724831,5.59142828,0.86865038,0.20830503,-0.03604105,4.41391468,-30.46623802,42.69950676
33291570,-1.54157603,0.12622140,8.13559723,1.52594137,-0.04581489,0.22052236,3.88775540,-28.44928360,43.43028450
33344570,-1.10548413,1.37048924,11.09133148,0.51740283,1.16186571,-0.21807888,1.81233502,-25.52616310,46.26571083
33397570,-0.72801632,2.13738894,10.19641495,0.96333450,0.04703662,0.56077427,1.43233204,-23.94767571,47.47881126
33450570,-1.47816622,1.90767801,12.02034473,0.78435093,-0.37568212,-0.44409904,0.46770001,-23.56767082,49.20345115
33503570,-0.78424764,0.45343989,10.82153988,-0.98654735,1.57297802,-0.04825835,-0.39462185,-22.67611885,49.43729973
33556570,-3.01076913,1.26341045,14.39581966,1.40498996,-0.33353242,-0.51801372,-1.19848156,-24.31306648,49.70038032
33609570,-2.71645188,0.41635117,14.76550961,0.33964109,1.15087008,-0.16065755,-2.60157680,-23.01227760,50.73808861
33662570,-2.09252334,-0.96849501,16.74198151,0.47158796,-0.49785516,-0.34758231,-3.25928020,-23.28997421,50.94270897
33715570,-3.11784792,0.41395834,13.78684711,0.28710666,-0.07757989,-0.03420845,-1.59310055,-22.63227272,51.17655754
33768570,-2.22711968,0.11006984,13.06062412,-0.18509217,-0.56016338,-0.30848694,-0.13153934,-23.37766838,51.10348320
33821570,-0.51146585,1.66719925,7.93998384,0.11239920,-0.65179324,-0.28038713,2.03157139,-22.23764992,51.62964058
33874570,-0.37627137,1.23529470,10.09890842,0.04703662,-0.37201694,-0.13805555,3.08389378,-22.19380379,51.22040367
33927570,-0.55872405,1.84127700,8.04048252,0.10934488,-0.41783181,-0.21135938,4.51622677,-20.46916103,51.73195457
33980570,-0.51206404,1.67796683,10.40758228,-0.19547687,-0.33536503,-0.27305678,5.40777684,-21.60917854,51.67348671
34033570,-0.40677986,1.61934268,8.51306438,-0.21319197,-0.12217305,-0.12583824,6.62087155,-21.38994408,51.52733040
34086570,-0.80518490,0.87637126,10.11386299,0.14966199,-0.04459316,0.08002335,6.95703221,-21.30225182,51.13271141
34139570,-0.83210409,0.74117684,9.93679428,0.10018190,0.00794125,-0.00549779,6.81087590,-21.49225426,52.06810951
34192570,-0.56231332,0.87158561,9.82313538,0.17654005,-0.04276057,-0.02565634,6.79625988,-20.84916687,52.34580803
34245570,-0.23868407,1.16769743,10.57268620,0.03970624,-0.14477505,-0.11789699,6.89856816,-20.71762657,51.41040993
34298570,-0.16989039,1.32083809,9.25962543,0.07574729,-0.15027285,-0.11606439,8.00935459,-20.26454258,52.09734154
34351570,-0.22552353,1.38544428,9.56949615,0.05497787,-0.07086036,-0.07391470,8.55013180,-20.42531490,52.46272850
34404570,-0.23150560,1.38065863,9.92124081,-0.00916298,0.00000000,-0.00488692,8.53551770,-19.82607460,52.05349541
34457570,-0.21954149,1.26161575,9.75075150,0.11789699,-0.09040806,-0.01160644,8.90090657,-20.54224014,51.55656624
34510570,-0.28713873,1.22512519,10.24307632,-0.04337143,-0.01832596,-0.05803220,9.13475704,-19.95761490,52.05349541
34563570,-0.08374880,1.22871435,9.48574734,0.10629055,-0.06414085,-0.01954769,9.61707211,-20.42531490,51.54194450
34616570,-0.13399808,1.22871435,9.87817001,0.00916298,0.02321288,-0.01099557,9.26629734,-20.10377121,51.45425606
34669570,-0.13339986,1.37288201,9.98824024,0.07452556,-0.06841691,-0.04031710,9.60245800,-19.82607460,52.31657219
34722570,0.03349952,1.35074842,9.99302578,-0.00244346,0.04276057,-0.02565634,9.31014347,-19.84068966,51.57118034
34775570,0.00837488,1.54097784,9.69212818,0.03787364,-0.11117747,-0.06047566,9.55860997,-19.94299984,52.41888618
34828570,0.04307081,1.52901363,9.47079182,0.04642576,-0.01832596,-0.00977384,9.92400074,-19.94299984,52.25811195
34881570,-0.04606184,1.26161575,9.88475037,0.07941248,0.01343904,0.02382374,9.98246289,-19.27068138,52.69658089
34934570,-0.04247260,1.27776730,9.99302578,0.06047566,0.00549779,-0.01710423,9.74861241,-19.38760662,51.60041237
34987570,0.06101698,1.51286209,9.73699379,0.15332718,-0.08918633,-0.03787364,10.50862599,-19.22683525,52.21426582
35040570,0.06879365,1.60737848,10.31007385,-0.04886922,0.06414085,0.03420845,10.30400563,-19.25606632,52.22888374
35093570,0.14895321,1.70428801,10.56012535,-0.12767084,0.17409658,0.15699238,10.14323330,-19.08067894,51.99503136
35146570,0.39182475,1.13359976,10.58823967,-0.26939157,-0.01221730,0.14233160,9.67553425,-19.56299305,51.70271492
35199570,0.37387854,0.69571322,11.28634548,-2.06777883,0.27427849,0.00977384,8.87167645,-23.39228249,50.03653908
35252570,-0.10229316,0.97148603,11.51246834,-0.70371675,0.27672195,0.75136423,7.52703953,-26.88541412,48.13651085
35305570,0.89431745,-0.54915285,10.35733318,-0.83566362,0.16982055,0.65240407,5.91932202,-28.15697289,47.33265495
35358570,0.11665011,-0.95832545,9.79681492,-1.31091678,-0.05131268,0.43615776,5.29085064,-30.30546570,44.58491325
35411570,0.25603202,-1.23529470,9.16451073,-0.79962260,0.33475414,0.76052719,3.87313557,-32.00087738,43.35721016
35464570,-0.23569304,-1.21974134,9.28833961,-1.02930784,0.04398230,0.30360001,3.20081997,-33.74013519,41.88102913
35517570,-0.84825563,-0.92243314,8.05543709,0.01527163,-0.20891590,0.35918877,3.12774182,-34.16398621,41.23793983
35570570,-1.31665063,-1.15992081,7.57089043,0.57054818,0.10567969,0.39889500,2.60157872,-33.12627983,42.43642235
35623570,-1.15812624,-1.31485605,8.13380241,0.44470990,-0.21563542,-0.07941248,2.66004277,-31.84010696,43.57644081
35676570,-1.04207420,-1.69232380,8.00159931,0.55161130,-0.06047566,0.13439035,3.34697628,-31.35779190,44.46799278
35729570,-1.04685986,-1.66600263,9.88116074,-0.84910268,0.34513885,-0.31276301,3.17158985,-32.57088661,43.13797188
35782570,-0.33559337,-1.97228408,11.22353554,0.11117747,0.05253441,-0.17592919,3.17158985,-33.21397209,42.50950050
35835570,-0.34935212,-1.46081829,9.40140057,0.07024951,-0.15515977,-0.12461651,4.10698605,-32.98012352,43.38643837
35888570,-0.46779680,-2.53519559,10.64207935,-0.84604836,0.15393804,-0.28527409,4.10698605,-33.90090752,41.26717186
35941570,-0.14775680,-2.54416871,10.28435230,-0.19853121,-0.24068090,-0.48380527,4.86699963,-35.15785027,40.56562614
35994570,-0.62093753,-2.12063885,8.60518837,-0.10079277,-0.25228733,-0.27672195,6.13855648,-35.43554497,40.09792518
36047570,-0.39003009,-2.41675091,10.35553932,-0.53695059,0.06108652,-0.23701571,7.54165554,-36.03478622,39.39637565
36100570,-0.23030919,-2.10688043,9.11964512,0.39400810,-0.53756142,-0.19608773,8.31628323,-35.72785759,40.56562614
36153570,0.04666004,-1.65344048,8.30429077,0.02321288,-0.53939396,-0.41172317,10.07015515,-35.23092842,40.24408150
36206570,0.34396827,-2.67338109,9.37089157,0.26389378,-0.19242254,-0.12034045,11.25401974,-34.99707794,40.27330971
36259570,1.00378907,-2.52682090,9.83808994,0.30726519,-0.53023100,-0.39461893,12.43788433,-34.23706627,40.79947471
36312570,1.02711916,-2.27437782,9.18006420,0.28771752,-0.54244828,-0.36896262,14.61560917,-33.75475121,40.75562858
36365570,1.03848505,-1.59601271,9.75015450,-0.43127084,-0.25106561,-0.51434851,16.23794270,-34.55860901,39.49868584
36418570,1.39681017,-1.93220425,9.49591732,0.31093040,-0.09773844,-0.24007004,17.58257866,-33.91552162,39.00175285
36471570,1.69052923,-2.14456749,10.04207802,0.00610865,0.07330383,-0.27000245,17.78719902,-33.65244293,39.73253822
36524570,1.75274253,-1.91665089,9.28654480,0.42821652,0.06536258,-0.16920967,18.03566361,-32.79012108,40.55100822
36577570,1.57088804,-1.26759779,9.39661407,0.70188415,0.19914205,0.02321288,17.42180729,-30.89009094,41.38409614
36630570,1.67677045,-1.20837545,9.79621601,0.09162978,0.37690383,-0.13194689,17.04180241,-30.14469337,42.64103889
36683570,1.33818603,-0.69332033,10.82931614,1.26571274,0.21319197,0.14355333,16.15024948,-27.92312241,44.45337868
36736570,1.15932262,-0.16271195,8.90728188,1.25288463,0.30604348,0.03298672,15.40485287,-25.10231018,46.25109672
36789570,1.11924279,0.41635117,10.33041382,0.27977628,0.61025441,-0.05864306,14.55714894,-24.48845482,47.05495643
36842570,0.98464650,-0.06520442,9.73998451,1.02747536,0.08307768,0.14721853,13.41713047,-22.45688438,47.75650978
36895570,0.68075806,0.72681987,9.85304546,0.59009582,0.62002820,-0.01588250,12.93481541,-20.49839211,49.36422539
36948570,0.90508515,0.61495543,9.25543785,0.80756384,0.17654005,-0.04337143,12.14557362,-18.72990418,49.75884437
37001570,0.39361933,0.95294166,10.33579826,-0.57482415,0.52717668,-0.26939157,11.15171147,-19.43145371,50.22654152
37054570,0.28713873,0.76809609,10.52722359,0.21807888,0.16554448,-0.00671952,10.45016194,-18.75913525,50.66501045
37107570,-0.03888337,1.10309136,10.39322472,0.00610865,0.24373522,-0.10262536,10.69862652,-18.68605709,50.09499931
37160570,-0.04666004,1.60139644,9.95833015,0.12278391,0.05864306,-0.09590584,10.08477116,-18.26220417,50.62116813
37213570,0.03529413,1.15274227,9.71007442,-0.08429940,0.14782940,0.00000000,9.76322842,-18.05758572,50.16808128
37266570,-0.14775680,1.18504536,10.45125103,-0.05619960,0.08063421,-0.07452556,9.66091824,-18.14527893,50.40192985
37319570,-0.01076770,1.01515496,9.37687397,0.32253683,0.01343904,0.04886922,9.98246289,-17.37065220,51.16194343
37372570,-0.00717847,1.51824605,10.11625671,-0.09529497,-0.00671952,-0.08368853,9.42706967,-17.07833958,51.13271141
37425570,-0.06460622,1.40099764,9.69811058,-0.11545353,0.04214970,-0.04948008,10.01169300,-17.44373131,51.19117164
37478570,-0.07956135,1.26999068,10.03071308,-0.10995574,0.03726278,-0.04153884,9.73399639,-17.23911285,50.92809486
37531570,-0.15014961,1.00618184,9.79202843,0.03970624,-0.02809980,-0.01404990,10.12861920,-17.98450756,51.30809974
37584570,-0.05383851,1.09770739,9.80459118,-0.00427606,-0.00305433,-0.02076942,10.42092991,-18.29143524,51.27886772
37637570,-0.00658026,1.25683010,10.07139015,-0.23396137,-0.09407324,-0.10629055,10.42092991,-18.90529156,50.59193230
37690570,0.10289138,1.10787678,9.64008427,-0.12339477,-0.09896017,-0.05864306,10.84478283,-18.99298477,50.02192497
37743570,-0.12741780,1.07796669,10.34357452,0.00183260,0.03787364,0.01038471,11.07863331,-19.03683186,49.81730842
37796570,-0.13459629,0.90568340,9.94457150,0.30054569,-0.10262536,0.06963863,11.63402653,-18.33528233,51.33732796
37849570,-0.16151552,0.86440724,10.49850941,-0.07513642,-0.14721853,-0.13133603,11.45864010,-18.37912846,50.03653908
37902570,0.11724831,0.99242318,9.52104187,0.17776178,-0.23151793,-0.07269296,11.99941540,-17.92604542,50.51885414
37955570,0.28414771,1.14855492,9.02094173,0.11606439,-0.00916298,-0.10384709,12.90558338,-17.31218910,50.37269783
38008570,0.55214387,1.13060880,9.84586716,-0.01466077,0.11606439,-0.14966199,12.65711880,-17.63373375,50.85501289
38061570,0.33140591,1.52063882,10.03190899,0.07391470,0.05803220,-0.02871067,13.12481976,-17.23911285,50.46039390
38114570,0.31226337,1.45902371,9.81655502,-0.16859880,0.04520403,-0.08491027,12.70096684,-17.18064976,50.70885658
38167570,0.08913264,1.39022994,10.22453117,0.10690141,0.07452556,0.00366519,12.23326588,-17.28295898,50.19731331
38220570,0.13399808,1.43509543,9.58804035,0.25289822,-0.02260201,0.02932153,12.52557850,-17.06372452,50.81116676
38273570,0.16929221,1.34297180,10.01336479,-0.12522738,0.08613200,-0.08552113,12.07249546,-16.87372208,50.81116676
38326570,0.37148571,1.39142644,9.47258663,0.29688048,-0.10629055,-0.00549779,12.70096684,-16.66910267,50.43115806
38379570,0.23449662,1.77068877,9.80698299,-0.07452556,0.05925393,-0.18631390,12.81789112,-16.55217838,51.23501777
38432570,0.07956135,1.35912311,9.60060215,0.42882740,0.17043139,-0.16493361,12.40865422,-15.33908272,51.14732551
38485570,0.13220344,1.70069873,9.69811058,0.15882497,0.21624629,-0.58581978,12.33557606,-14.87138271,51.41040993
38538570,-0.16869400,1.35254312,9.80997467,-0.13927726,0.21502456,-0.23273966,11.19555760,-14.84215164,50.75270271
38591570,-0.56889361,1.78444755,10.50808144,-0.22113320,0.15149458,-0.45814893,12.11634159,-15.66062546,51.33732796
38644570,-0.14536397,1.52602267,9.41336441,0.32925636,0.00549779,-0.14477505,12.07249546,-15.07600212,50.63578224
38697570,-0.19441684,1.49970162,9.73220825,-0.08307768,0.10506882,-0.03848451,12.11634159,-15.06138611,52.06810951
38750570,-0.33379877,1.52662086,9.90748215,-0.45265111,0.13683382,-0.26450464,11.89710713,-15.67524147,51.51271629
38803570,-0.40737805,1.42432761,10.22333527,-0.56505036,-0.02382374,-0.32681289,12.20403385,-16.20140362,50.69424248
38856570,-0.41096732,1.20000064,9.87218761,-0.27427849,-0.05681047,-0.00061087,12.18941975,-17.07833958,50.40192985
38909570,-0.36550367,1.12941217,9.72502899,-0.06291912,-0.01771509,-0.06047566,12.56942654,-18.04297066,50.56270027
38962570,-0.49710891,1.17427766,10.35494041,0.05558874,0.00305433,-0.00305433,12.67173481,-18.51067066,50.05115700
39015570,-0.21595225,0.74057859,9.47318554,0.02382374,0.00183260,0.03909538,12.37942219,-17.54603958,50.28500175
39068570,-0.25663024,0.75433737,10.10070229,-0.03176499,-0.03176499,0.00000000,12.89096928,-18.01373863,50.40192985
39121570,-0.21296121,0.90388876,9.88295650,-0.18997908,0.02443461,-0.13439035,12.77404499,-18.26220417,49.27652931
39174570,-0.30269209,0.99541420,9.91825008,-0.07574729,0.01466077,-0.05986479,12.64250279,-18.30605221,49.65653801
39227570,-0.31046876,0.87218392,10.23350430,-0.20219639,0.05192355,-0.12889256,12.64250279,-18.74452019,49.37883949
39280570,-0.21535406,0.59401822,9.58504963,-0.14477505,-0.00549779,-0.01466077,12.89096928,-19.43145371,49.18883705
39333570,-0.33619159,0.67298138,9.87637520,-0.10384709,0.09651671,-0.12400565,12.94943142,-19.69453526,49.10114097
39386570,-0.52043891,0.14356937,10.58225822,0.02260201,0.06475171,-0.28649577,12.74481297,-19.57761002,49.83192253
39439570,-0.44566321,0.87517494,9.73519897,-0.27183503,-0.12217305,-0.39828411,13.73867321,-19.34375954,49.61268425
39492570,-0.14596218,0.28534412,9.43848896,-0.09468411,-0.01466077,-0.08796459,14.35253048,-19.86992168,49.39345360
39545570,-0.80817592,0.31286156,10.24367428,-0.09040806,-0.01710423,-0.26145032,14.95176983,-20.29377461,49.13037300
39598570,0.50129634,-0.07357930,9.60778141,-0.14721853,0.29016098,-0.47403142,14.23560429,-20.45454598,49.20345115
39651570,-0.67417777,0.01495514,10.67438221,-0.11850785,0.22724187,-0.69882983,14.64484120,-20.23531151,48.77959633
39704570,-1.34356987,0.95413798,10.80359459,0.99082345,-0.20830503,0.01649336,15.11254120,-18.58374882,49.62730217
39757570,-0.78963155,0.77288175,7.92981434,-0.33903021,-0.23823744,-0.24434610,15.82870579,-17.57527065,49.91961479
39810570,-0.43908298,0.92303139,9.99840927,-0.09162978,-0.12583824,0.06108652,16.04794121,-18.78836727,49.64191627
39863570,-0.25962126,0.14057833,10.52064228,0.15393804,-0.07880161,-0.06536258,16.34025288,-17.86758232,49.52499580
39916570,-0.03948158,0.52342993,9.17707348,0.00305433,-0.08918633,-0.07391470,16.93949223,-17.58988571,49.15960121
39969570,-0.26919258,0.51684976,9.89432144,0.04642576,-0.03176499,-0.14599679,16.73487377,-18.01373863,49.52499580
40022570,-0.35653058,0.81176507,10.07019424,-0.16187929,-0.02504547,-0.24923302,17.20257378,-18.15989590,48.91113853
40075570,-0.09332009,0.52522463,9.83031368,-0.04825835,-0.07941248,-0.32436946,17.67027378,-18.53990078,49.18883705
40128570,-0.34337005,0.42293140,10.15214729,-0.06169739,0.00488692,-0.18448131,17.86027527,-18.75913525,49.29114342
40181570,-0.01794617,0.28354946,9.88834000,0.43921208,-0.07880161,-0.04886922,17.77258206,-17.42911434,49.07190895
40234570,-0.06340980,0.65982080,9.96251678,-0.23884831,0.03237586,-0.18875736,18.43028546,-17.20988083,48.39959526
40287570,-0.35952160,0.85064852,9.83988571,-0.53878313,0.04337143,-0.45998150,19.39491463,-18.08681679,48.63344002
40340570,0.13040884,-0.38584265,10.06899738,0.03420845,-0.02443461,-0.24129176,18.91259957,-18.30605221,48.53112984
40393570,-0.28654051,-0.76390862,9.72622585,-0.16432275,0.20952678,-1.03847098,19.55568600,-17.76527405,48.73575401
40446570,-0.06640083,-2.01176572,10.09232712,-0.62491518,0.08307768,-1.77334177,20.06723309,-18.48143864,47.63958168
40499570,-0.88594264,-0.70109713,10.07079315,-0.56321776,0.29260448,-1.73363554,21.64571858,-17.91143036,47.59573173
40552570,-0.86141622,0.66101724,11.04227829,0.44837511,-0.14782940,-0.65118229,22.66881180,-17.01987743,48.25343895
40605570,-0.31465617,-1.26580322,7.51944542,0.89797187,-1.08000982,-0.92057389,24.40806914,-13.10289478,47.71265602
40658570,0.30987051,0.11844473,11.20140076,-1.71714222,0.13561207,-0.45326200,24.84653712,-14.57907105,47.21572685
40711570,0.59521461,0.60658056,10.33101177,2.53142548,-0.56077427,-0.18387043,25.60654927,-10.72055006,48.20958519
40764570,0.15194425,0.95234340,8.71525764,-0.51801372,0.09529497,-0.27672195,25.48962403,-8.92283011,48.32651329
40817570,0.29850465,1.46201468,11.58126068,-0.09529497,0.32192597,-0.11239920,25.18269635,-10.95439959,48.22420311
40870570,0.55992055,-1.31425786,9.96371365,-0.42210788,-0.20341812,-0.14355333,25.06577158,-10.29669714,48.10728264
40923570,-0.29611179,1.08095765,10.40937710,-0.49357909,0.00427606,-0.28832841,25.12423373,-11.27594376,48.29728126
40976570,0.47318065,-0.48215377,9.95055294,0.62124991,0.06108652,-0.19181168,24.61268759,-9.66822624,48.13651085
41029570,0.14536397,0.87457669,9.59043312,-0.99937552,-0.12705997,-0.61147606,25.78193617,-10.15054131,47.09879875
41082570,0.78125662,-2.86002135,10.23350430,-2.70368934,-0.03115413,-0.98227131,26.04501725,-14.09675598,46.04648018
41135570,-1.36689985,3.22193551,11.43470097,-0.11056660,-0.35308009,-1.48073733,28.26658988,-14.91522980,45.65185737
41188570,0.78305119,-1.50508547,10.35972691,1.89062798,-0.43371433,0.18509217,27.91581512,-11.11517096,47.24495888
41241570,1.34656107,-0.35653058,9.62273598,1.18752193,-0.33719760,0.12095132,28.95352340,-7.40280676,47.15726662
41294570,0.28115666,0.64546394,9.77288532,0.44104472,0.00977384,-0.29382616,29.68430400,-5.73662722,46.98187828
41347570,0.82253277,-0.14057833,9.46839905,-0.26694813,0.14538592,-0.32864550,29.90353811,-5.13738728,47.49342537
41400570,0.41694936,1.86939275,10.56191921,-0.90591317,0.30482176,0.20952678,29.90353811,-5.92663014,46.85033989
41453570,1.94775760,-1.68454707,10.20239735,1.29136920,-0.41661006,0.37995815,30.40046883,-5.76585841,46.70418358
41506570,0.81894362,1.81435776,9.25962543,-0.25656340,0.16065755,-0.11301007,29.71353519,-5.31277460,47.17188072
41559570,1.01694965,1.18624187,9.46481037,0.24740042,0.08063421,-0.01404990,29.72815085,-5.00584680,46.99649620
41612570,0.40977088,1.97108769,10.40877819,-0.09896017,0.13133603,-0.17470746,29.59661031,-4.77199703,47.27418709
41665570,1.01216400,0.30927235,9.99661541,0.28099802,-0.05864306,-0.25167647,29.43583870,-4.45045361,46.83572197
41718570,0.92123675,0.41814575,10.10847855,0.11667527,-0.16065755,-0.07147123,29.97661627,-3.52967024,47.31803703
41771570,0.84107715,0.83928251,10.26580715,-0.04825835,0.13072516,-0.06902777,30.03507865,-4.11429459,47.66880989
41824570,0.80279201,1.27417815,9.82672501,-0.07269296,0.20402899,0.00733038,29.53814793,-3.67582631,46.99649620
41877570,0.67238319,1.28434753,9.79262733,0.27183503,-0.14721853,0.03970624,29.20198894,-3.28120482,47.27418709
41930570,0.77527452,1.61635184,10.07378292,-0.05253441,-0.02626720,0.01649336,29.49430108,-3.45659220,46.95264244
41983570,0.88534439,1.40518510,9.60239792,-0.10140362,-0.01221730,-0.00244346,29.64045716,-3.77813554,46.45571327
42036570,0.86261255,1.71385920,9.78485012,-0.02687807,0.03543018,0.13805555,30.26892841,-4.12891018,46.89418220
42089570,0.89551389,1.52422810,9.79442120,-0.33780846,0.10140362,0.15699238,30.22508151,-4.77199703,46.45571327
42142570,1.01635146,0.61974102,10.30229759,-0.18692476,0.01893682,0.22296581,29.87430692,-5.94124579,46.96726417
42195570,0.84526461,0.32841492,9.70827961,-0.18753563,-0.03115413,0.09651671,29.88892246,-6.54048586,46.42648506
42248570,0.58384871,1.11326075,9.31884766,-0.61575216,-0.00183260,0.01710423,30.37123764,-7.56357861,45.63723945
42301570,0.84646106,0.60059845,9.87039375,-0.19425514,0.01221730,-0.06719518,29.66968835,-7.92896867,45.66647148
42354570,0.75433737,0.39960137,9.54018402,-0.47280970,0.13744467,0.04642576,30.04969418,-8.64513350,46.54340935
42407570,0.75972122,-0.15254246,11.58305645,-0.85154617,0.06414085,-0.03543018,29.66968835,-10.17977238,45.92955208
42460570,0.79082787,-0.13878372,9.91406250,-0.16615535,-0.07269296,0.16249016,30.03507865,-11.12978697,45.78339577
42513570,0.88055873,-0.44207400,9.69930649,0.07208210,0.10018190,0.15699238,29.87430692,-11.40748358,45.53492927
42566570,0.59342003,-0.24107689,9.69212818,-0.14782940,0.35430184,0.36713001,29.93276942,-11.29055882,45.98801613
42619570,0.44566321,-0.40558347,9.77288532,0.06169739,0.06902777,0.24190263,28.66121125,-12.24057293,46.70418358
42672570,0.37926239,-0.53898335,10.44347477,-0.24923302,0.23335053,0.28344145,28.35428357,-12.92750740,45.25723839
42725570,0.68793654,-0.52642095,10.14855862,-0.11239920,-0.16004670,-0.11972959,28.69044256,-13.52674675,46.32417106
42778570,0.59401822,-0.66520470,10.31785202,0.17531833,-0.32192597,-0.12156218,29.24583566,-13.24905014,45.47646904
42831570,0.48454657,0.15373886,10.58405399,0.21074851,-0.11117747,-0.03970624,29.46506989,-13.40982246,45.40339470
42884570,0.92362952,0.03888337,9.76630592,-0.03481932,-0.11423180,-0.04092797,30.34200645,-12.31365156,45.11108208
42937570,1.31126690,-0.10528419,8.66321468,0.19730946,-0.20525071,-0.17592919,30.50277812,-12.05057049,45.50570106
42990570,1.09531462,-0.39361933,8.99641514,0.27916542,-0.20158553,0.16065755,31.65741128,-11.74364233,44.89184379
43043570,1.35493588,-0.54376900,9.77527905,0.05497787,0.10201450,-0.04948008,31.13124933,-11.50979281,45.53492927
43096570,0.99780709,-0.00777667,9.02931595,0.40989056,-0.05497787,0.14294246,30.89739958,-11.17363358,45.91493797
43149570,0.86141622,0.27457643,10.03131008,0.41722095,-0.02565634,0.07086036,30.38585323,-10.48670006,46.29494285
43202570,1.15812624,0.13818552,10.53499985,0.28710666,0.06597345,0.15515977,30.69278103,-10.10669470,45.79801369
43255570,1.08514500,0.54017967,9.92841911,0.39522979,0.03054326,-0.04825835,30.07892543,-8.82052088,45.90032387
43308570,1.13838542,0.23449662,9.71246719,0.17165314,-0.04886922,0.09101892,29.96200061,-8.00204659,45.53492927
43361570,0.79262257,0.89491570,9.34397221,0.14538592,0.05436701,-0.01221730,29.97661627,-7.72434998,46.28032875
43414570,0.80638129,0.86081791,10.13898849,-0.11545353,0.15821409,-0.00610865,29.74276638,-8.19204950,46.60186958
43467570,0.74536431,0.91764748,9.74656487,-0.02076942,0.01893682,-0.03543018,29.78661323,-8.35282135,46.51418114
43520570,0.86859459,0.63529438,9.98106194,-0.05070181,0.11606439,0.10934488,29.69891954,-7.87050629,46.68956566
43573570,0.99242318,0.57786667,9.66879749,-0.20463985,0.05070181,0.01038471,29.01198602,-8.42589927,45.25723839
43626570,0.90329051,0.59401822,9.89551830,-0.06780604,0.05742133,0.01221730,29.39199174,-9.25898886,46.38263893
43679570,0.81535429,0.46181476,9.71964550,0.12522738,-0.03359759,0.02565634,29.21660459,-9.24437380,46.66033745
43732570,0.76091760,0.49351969,10.08694458,-0.10751228,0.05009095,-0.00183260,29.52353227,-8.52820873,46.90880012
43785570,0.85184485,0.04187440,9.86381340,0.06047566,0.08979719,0.07208210,29.45045424,-8.71821165,45.87109566
43838570,0.83988076,0.00239282,10.09950638,0.01466077,-0.05497787,-0.08185595,29.02660156,-8.96667719,47.39111519
43891570,0.36909288,1.52542448,9.85125065,0.11484267,0.00488692,0.01160644,29.30429805,-8.65974903,46.86495399
43944570,0.84287179,-0.16031910,10.58106136,-0.04398230,-0.14538592,0.15943582,29.40660739,-9.27360487,46.55802345
43997570,1.11864448,-0.29431719,8.47298527,0.07635815,-0.23029619,0.24068090,30.51739377,-9.06898594,46.06109428
44050570,1.11864448,0.29551360,10.06839943,-0.19364427,0.21074851,-0.00061087,29.56737912,-10.41362238,47.11341667
44103570,1.15453696,0.43968114,10.14197826,-0.19975293,0.11728612,0.05681047,30.06430984,-10.28208208,46.25109672
44156570,0.76390862,1.18803644,8.83011436,-0.09346238,0.10995574,-0.08552113,29.91815377,-10.89593697,46.06109428
44209570,0.71784687,0.70109713,10.61934757,-0.02932153,-0.10140362,0.05864306,29.33352936,-10.61824083,46.58725548
44262570,1.46739841,-0.72203422,10.82512856,-0.16615535,-0.30298916,0.23518312,30.02046299,-11.61210251,45.90032387
44315570,0.49411789,0.58624154,9.19801044,0.09834930,-0.24129176,-0.21258110,30.88278395,-10.76439714,45.52031517
44368570,1.03250301,-0.26081768,11.08056259,-0.22602014,0.12217305,0.00916298,30.59047178,-11.33440590,45.52031517
44421570,0.52881378,0.66879386,10.31127167,-0.12217305,0.08246680,-0.10751228,31.18971177,-11.49517775,44.74568748
44474570,0.82851481,-0.39302111,9.95653534,0.08429940,-0.04153884,0.10445795,31.07278688,-11.74364233,45.08185005
44527570,0.92183489,0.13399808,9.39182949,0.00427606,-0.05864306,-0.21563542,31.56971759,-11.71441174,45.44724083
44580570,1.16051900,0.88773721,10.01695442,-0.01466077,-0.09590584,-0.08918633,31.35048348,-11.61210251,45.06723594
44633570,1.63489604,0.28414771,8.45324421,-0.00794125,-0.07513642,0.18875736,31.70125807,-11.52440834,44.95030784
44686570,1.42313135,0.23210381,10.98664570,0.09773844,-0.07757989,0.13011429,31.42356152,-12.41596079,45.52031517
44739570,1.19521487,-0.16390836,9.25065231,-0.03176499,-0.05009095,0.23151793,31.13124933,-12.70827293,45.60801124
44792570,1.34177530,-0.26979074,10.06241798,-0.24495696,0.08613200,-0.08185595,31.07278688,-13.16135693,45.24262428
44845570,1.09770739,0.61136615,9.27637482,0.21868975,-0.13805555,0.03726278,31.87664539,-13.23443508,45.49108314
44898570,1.31186497,-0.57128644,10.35194969,0.10323622,-0.29626966,0.01893682,32.35896051,-13.20520401,46.09032631
44951570,1.54755807,-0.16031910,9.17707348,0.15271631,0.01343904,-0.02076942,32.66588831,-13.40982246,45.41800880
45004570,1.41056895,1.53499568,8.08893681,0.25045475,-0.21074851,-0.09224065,33.29435945,-13.08827877,45.21338463
45057570,1.98364997,0.60239315,9.55394268,-0.29260448,0.16310102,-0.06536258,33.13358784,-13.65828705,44.81876945
45110570,1.93340075,0.56889361,9.44147968,0.20341812,-0.17959438,-0.08185595,32.49050093,-13.83367538,45.53492927
45163570,1.95912361,-0.27218360,9.88475037,-0.18020524,0.19181168,0.07086036,31.77433610,-14.14060211,45.73955345
45216570,1.48713923,0.27876386,10.01815033,-0.02321288,0.16187929,-0.08857546,31.65741128,-13.83367538,45.49108314
45269570,1.50688004,-0.43070811,9.27159023,0.09162978,0.07330383,0.04520403,31.84741414,-14.30137444,44.99415397
45322570,1.41356003,0.02452643,10.37228680,0.02076942,-0.01221730,-0.18081611,31.75972057,-14.27214336,46.14878654
45375570,1.50329077,0.09870394,8.90907669,0.06230826,0.07941248,-0.16982055,31.90587664,-13.93598366,45.84185600
45428570,1.69591296,0.64067829,8.87797070,0.08918633,-0.00549779,-0.16065755,31.59894878,-13.74598122,46.16340065
45481570,1.63130689,0.19082761,10.44347477,0.26878071,0.01832596,0.04276057,31.59894878,-13.99444675,46.36802482
45534570,1.45842540,0.38225341,10.16650581,-0.20036380,0.25045475,-0.04642576,31.11663371,-13.89213753,47.21572685
45587570,1.47397876,0.15792631,9.76630592,0.07574729,0.05681047,0.04948008,31.27740543,-13.48289967,47.12803840
45640570,1.17487597,0.09092726,9.92722225,0.08552113,0.03298672,-0.01404990,30.89739958,-13.95059967,47.24495888
45693570,1.23529470,-0.14297116,9.89492035,0.01649336,0.18203785,0.03726278,30.16661907,-13.97983074,47.66880989
45746570,1.14975131,0.11306088,9.88175869,-0.06902777,0.11239920,0.00549779,29.75738204,-14.08214092,47.77112388
45799570,1.30169559,-0.38464624,10.27896786,-0.08185595,0.22479840,0.04948008,29.75738204,-13.77521229,48.63344002
45852570,1.17667055,0.46899325,9.68614674,-0.05986479,0.01221730,-0.14660765,29.58199477,-14.38906765,47.69804191
45905570,1.20239341,0.37686956,10.01156998,0.01771509,0.05314527,-0.04948008,29.37737620,-14.12598705,47.91728020
45958570,1.13539433,-0.09332009,10.08993435,-0.00916298,0.10201450,0.09468411,29.36276055,-13.68751907,48.09266472
46011570,0.82372916,0.34037903,9.78843975,-0.00366519,0.09346238,-0.00183260,28.99737025,-14.50599289,48.37035942
46064570,0.80638129,-0.07357930,9.96909809,-0.02993240,0.19792034,0.10384709,28.52967096,-14.54983997,48.91113853
46117570,0.61435717,0.54556352,9.44147968,0.05742133,0.02809980,-0.07696902,28.71967364,-14.57907105,48.41420936
46170570,0.93260258,0.31645080,9.69392300,0.09896017,0.08491027,0.03970624,28.31043673,-14.24291229,47.90265846
46223570,0.81774712,0.41156551,10.08036327,0.10873401,-0.02687807,-0.02748894,27.71119690,-14.34522152,48.31189918
46276570,1.03968143,-0.21954149,10.02831936,0.10201450,0.00000000,0.06047566,27.71119690,-14.24291229,48.53112984
46329570,0.93200445,0.40319064,10.31725311,-0.05986479,-0.03115413,-0.06902777,27.94504643,-14.28675842,48.98421287
46382570,1.07078826,0.10229316,9.88893795,0.03115413,-0.01282817,-0.04581489,28.33966780,-13.67290306,49.20345115
46435570,1.00857472,0.21954149,10.13958549,0.03787364,0.01282817,-0.01710423,28.16428066,-14.28675842,48.89652443
46488570,1.13479614,0.55513489,9.66939640,-0.01527163,-0.05070181,-0.04764749,28.85121441,-14.12598705,49.02806663
46541570,1.69710946,0.28534412,9.61137104,0.01649336,0.02748894,-0.03848451,28.52967096,-14.09675598,49.01344490
46594570,2.92941332,0.96729857,9.65563774,-0.03176499,0.03543018,-0.06963863,28.77813626,-13.59982491,48.51651573
46647570,4.17487764,-0.30089745,9.80937672,-0.08674286,0.22357668,0.30421087,28.20812750,-13.90675354,49.15960121
46700570,4.51705074,0.20099710,10.43390369,-0.45448375,0.16004670,-0.20708331,28.38351465,-14.46214676,47.90265846
46753570,3.47677159,-0.11724831,11.68774223,0.02138028,-0.09773844,0.32009339,27.78427482,-14.33060551,48.06342888
46806570,2.18524528,0.01734797,10.37288570,-0.18936822,-0.39584067,0.15699238,28.55890203,-14.66676426,46.39725303
46859570,2.03270292,1.58883440,11.77926731,-0.07147123,-0.19120082,0.32742378,28.26658988,-14.37445259,46.30955696
46912570,3.25184584,-0.48454657,10.00139999,-0.51984632,-0.13255775,0.54244828,27.98889327,-13.92136860,45.31569862
46965570,3.09092879,-1.33878434,10.02054310,0.41294488,-0.33292153,0.86132002,28.35428357,-14.53522396,44.55568504
47018570,2.13320136,-0.29491538,6.23928452,0.31520644,-0.67134088,0.34941491,28.98275471,-14.50599289,43.09412575
47071570,0.18903300,0.41336012,11.61775208,0.30298916,-0.54244828,-0.13866641,28.82198310,-14.44753075,42.77258110
47124570,-2.16430807,0.20039889,7.70309401,-0.14416420,0.02565634,-0.19853121,30.40046883,-13.14674091,42.88950920
47177570,-3.95952320,2.39880466,9.03350353,0.27794370,-0.47525313,-0.70432764,31.18971177,-11.86056757,41.79333687
47230570,-3.49352098,2.52622247,13.51167107,-0.46242499,0.56443948,-0.33964109,30.02046299,-12.35749817,41.92487907
47283570,-2.13918328,1.25264275,8.97428131,0.10567969,-0.09224065,0.37262779,30.37123764,-11.99210835,42.40719414
47336570,-0.84347004,-1.67258298,10.88195896,-0.40256017,0.37568212,0.17776178,29.61122597,-13.08827877,42.48026848
47389570,0.28534412,-0.57008994,9.09392262,0.11362094,-0.05192355,0.12339477,29.40660739,-12.85442829,42.97719765
47442570,1.35732865,-1.95373964,9.82851982,-0.12828170,0.23945917,0.21624629,28.58813310,-12.92750740,42.80181312
47495570,1.40339053,-1.05822587,10.32562828,-0.00427606,0.07086036,-0.07452556,28.51505518,-13.23443508,43.43028450
47548570,1.48055911,0.26021945,9.49053288,0.12461651,0.21991149,-0.07391470,28.79275179,-12.72288895,43.34259224
47601570,1.40757799,0.67118675,10.37647438,-0.01466077,-0.05192355,-0.08124508,28.74890495,-12.69365692,43.03566551
47654570,1.56670070,0.29312077,9.96251678,-0.05742133,0.02076942,-0.10201450,27.97427750,-12.98596954,42.86027717
47707570,1.72462690,0.10827523,9.71067238,-0.00122173,0.02138028,-0.07330383,28.66121125,-12.98596954,43.03566551
47760570,1.59302175,0.46360940,9.70648575,-0.07269296,0.05131268,0.01954769,28.70505810,-12.97135353,42.67027092
47813570,1.47756803,-0.32961133,9.83569813,0.03970624,0.10873401,0.09834930,28.32505226,-13.19058800,42.84565925
47866570,1.35254312,0.13399808,9.71007442,0.01282817,-0.05803220,-0.03176499,28.76352072,-13.00058556,42.68488502
47919570,1.30109727,0.05742774,9.63350391,0.05619960,0.02565634,0.02626720,28.80736757,-12.73750496,43.37182426
47972570,1.33938241,-0.14656039,10.10130119,-0.12400565,0.10567969,-0.08063421,28.36889911,-13.02981567,43.18182182
48025570,1.53439748,-0.35353953,9.65982533,0.04398230,0.02993240,0.01404990,28.51505518,-12.59134769,43.06489372
48078570,1.35015011,0.12622140,9.79681492,0.01160644,0.06780604,-0.02199115,28.17889619,-12.47442293,42.96258354
48131570,1.44347036,-0.20877378,10.18026352,-0.01221730,0.03176499,0.01038471,28.10581827,-13.02981567,43.18182182
48184570,1.30169559,0.29611179,9.53061199,0.02260201,0.01832596,-0.02382374,28.20812750,-12.62057972,42.91873741
48237570,1.39082813,-0.17168503,9.97567749,0.02138028,0.04459316,-0.00977384,28.29582095,-12.92750740,44.02952385
48290570,1.28913319,0.15852450,9.51446056,0.02748894,0.02260201,0.03909538,28.25197411,-12.70827293,43.12335396
48343570,1.31724894,-0.00299103,10.10847855,0.05192355,0.05253441,0.02260201,28.45659280,-12.38672972,43.81029320
48396570,1.30229366,0.20757736,9.76630592,-0.00977384,0.01771509,-0.00794125,28.03274012,-12.43057632,43.59105491
48449570,1.39022994,-0.06879365,9.92303562,0.04031710,0.05497787,0.00183260,28.36889911,-12.66442585,44.29260826
48502570,1.36689985,-0.12981063,9.70468998,0.02260201,-0.00671952,-0.00733038,27.79889012,-12.35749817,44.30722236
48555570,1.30049920,0.14596218,9.91944599,-0.05619960,0.04948008,-0.03481932,27.91581512,-12.35749817,44.32183647
48608570,1.15752792,-0.08075776,10.07797050,0.04398230,-0.01221730,0.02626720,28.12043381,-12.44519234,44.59953499
48661570,0.88055873,-0.07896315,9.72502899,0.05009095,0.01160644,0.01649336,28.25197411,-12.26980495,44.39491463
48714570,0.00059821,0.47377890,10.09711361,-0.03970624,0.02687807,0.07574729,28.00350881,-12.44519234,44.02952385
48767570,-1.19700956,0.19381863,11.07039356,-0.13011429,0.01710423,0.16371189,28.42736149,-13.20520401,44.11721992
48820570,-1.94297206,0.07716853,10.18863869,-0.04214970,-0.12156218,0.23762657,27.97427750,-13.95059967,43.43028450
48873570,-3.00837636,1.43928289,9.52283573,-0.07391470,-0.08124508,0.40133846,28.77813626,-14.09675598,43.47413063
48926570,-3.13998151,0.48394835,9.25244713,0.18692476,-0.15760322,0.77335542,28.29582095,-15.32446671,44.20491218
48979570,-2.45802712,-1.09651101,11.58126068,-0.40622538,0.37384951,0.50823987,27.31657529,-16.47910023,43.85413933
49032570,-1.83230400,-0.14536397,10.57866859,-0.02321288,0.12217305,0.23884831,26.95118523,-17.16603470,44.55568504
49085570,0.38644087,-3.10408902,10.19701385,0.30176744,0.62186080,0.18631390,26.67348862,-17.72142696,44.81876945
49138570,1.44646132,0.15912271,10.15334511,0.14905111,0.07452556,-0.39339721,26.08886433,-17.79450607,45.08185005
49191570,2.95633245,-1.75992119,8.76730156,-0.22663100,0.44654247,-0.43127084,26.79041291,-17.75065708,46.06109428
49244570,3.43250418,-0.59940207,7.63370275,0.00916298,0.26939157,-0.67806041,26.81964445,-17.50219250,47.11341667
49297570,4.18863630,1.21794665,9.36550808,0.04214970,0.29016098,-0.97066486,25.62116432,-16.49371529,48.39959526
49350570,4.69471788,0.78125662,13.81196976,-0.10445795,0.69699723,-0.21991149,23.60421038,-16.34755993,48.82344246
49403570,4.19880581,0.38225341,10.58046246,0.44409904,0.31215212,-0.32070425,23.12189532,-14.84215164,48.79421425
49456570,3.02692056,3.11066937,11.19721317,0.42943826,-0.37262779,-0.47280970,23.86729098,-12.85442829,49.11575508
49509570,3.11665130,0.79740822,8.18883705,-0.02199115,-0.10812315,0.31398475,24.62730313,-11.59748650,49.64191627
49562570,2.09910345,-1.02592278,11.64945793,0.16126841,-0.83016580,-0.05070181,24.83192158,-12.16749573,48.38497352
49615570,1.47278237,-0.48693940,9.14716339,-0.04398230,-0.01649336,-0.08429940,26.43963862,-11.52440834,47.94650841
49668570,0.84466642,0.85304123,10.14975548,0.02138028,0.07330383,0.05925393,26.87810707,-11.69979572,48.22420311
49721570,0.65563345,1.02532446,7.84606552,0.35246924,-0.30665436,0.00733038,27.12657213,-11.56825495,48.20958519
49774570,0.63290161,0.97926271,11.46042442,-0.16371189,-0.01343904,-0.08246680,26.57117892,-11.59748650,47.78573799
49827570,0.78843504,0.57966131,9.44447041,-0.02809980,0.07024951,0.00183260,27.24349714,-11.61210251,48.29728126
49880570,0.78424764,0.96849501,10.08574677,-0.08124508,0.11789699,-0.06169739,27.28734422,-11.40748358,48.20958519
49933570,1.16111720,0.83509511,9.89013386,0.10323622,-0.09957103,-0.10995574,27.47734690,-11.18824959,48.80882835
49986570,1.05284190,1.44406843,8.93300533,0.10262536,0.00610865,-0.05925393,27.91581512,-10.80824375,48.20958519
50039570,1.17786694,0.76031941,10.15633488,-0.07696902,0.04825835,0.06291912,27.50657821,-10.54516268,48.12189674
50092570,1.19940233,0.59940207,9.53300571,0.06597345,0.08735373,0.06658431,26.71733523,-10.66208744,49.36422539
50145570,1.11804640,0.65383881,10.81855011,-0.00488692,-0.03176499,-0.12095132,27.14118791,-10.79362774,48.86729240
50198570,0.99003041,1.20179522,9.23569679,0.07391470,-0.08613200,-0.00855211,27.79889012,-10.48670006,48.06342888
50251570,1.02173531,0.96610212,10.19880867,-0.04153884,0.10018190,-0.00244346,27.94504643,-10.92516851,48.75036812
50304570,1.18983102,0.89012998,9.38524818,-0.01527163,0.05681047,0.03115413,27.49196244,-11.20286512,48.10728264
50357570,1.14855492,0.56231332,10.02652550,0.04948008,-0.00427606,0.01527163,26.76118183,-11.23209620,48.37035942
50410570,0.92662054,1.08394861,9.89252758,-0.01771509,0.05314527,0.00000000,27.15580344,-11.56825495,48.35574150
50463570,1.02233350,0.76331043,9.60299587,0.04276057,0.06536258,-0.00366519,27.34580660,-10.72055006,47.99035454
50516570,1.05822587,0.75074810,9.99003410,-0.01282817,0.03359759,0.00427606,26.99503184,-10.79362774,48.35574150
50569570,1.06061864,0.99541420,9.87876892,0.06291912,0.02260201,-0.04092797,26.86349154,-10.86670637,48.39959526
50622570,0.95593268,0.81834531,9.91107082,0.02871067,0.01343904,0.03237586,27.08272553,-11.02747774,48.83805656
50675570,0.95294166,0.99062854,10.18385315,-0.00916298,0.02138028,-0.02932153,26.70271969,-10.74978113,48.51651573
50728570,1.04027963,1.06420791,9.66879749,-0.01404990,0.04337143,-0.00733038,26.79041291,-11.18824959,48.99883079
50781570,1.04506528,0.79441720,9.73519897,0.05558874,0.00122173,-0.00610865,26.39579201,-10.77901220,48.95498466
50834570,1.09112704,1.18923283,9.65444183,0.03115413,-0.01954769,-0.03604105,27.02426291,-10.98363113,48.31189918
50887570,1.13659084,0.50787663,9.76690388,0.08002335,0.02199115,0.05375614,26.77579785,-11.01286221,48.66267204
50940570,1.00139630,1.05942225,10.00558758,-0.01038471,-0.01282817,-0.00244346,26.98041630,-10.88132191,48.58959770
50993570,0.87816596,1.02352989,9.72861958,-0.00671952,0.04092797,0.03359759,26.83425999,-10.64747238,48.72113609
51046570,0.86919290,0.71186477,10.38425255,-0.03115413,-0.00977384,-0.04581489,26.58579493,-10.66208744,48.47266960
51099570,1.03489578,0.84825563,10.25504017,-0.05253441,-0.00061087,-0.06291912,26.80502892,-10.13592577,48.39959526
51152570,1.22333062,1.17966151,9.18843937,0.09162978,-0.04642576,-0.02993240,26.83425999,-10.73516560,48.31189918
51205570,1.28195488,0.86620182,9.48395252,0.07696902,0.00855211,0.08368853,27.08272553,-10.69131899,48.80882835
51258570,1.10608232,0.76809609,10.31067276,-0.05497787,-0.01466077,-0.04276057,26.93656922,-10.83747482,47.82958412
51311570,0.96131653,1.25084805,9.78604603,-0.00977384,0.00855211,-0.04764749,27.38965321,-10.73516560,48.16574287
51364570,1.12223387,0.69152576,9.94816017,-0.06169739,-0.00488692,-0.04153884,27.15580344,-10.51593161,47.31803703
51417570,1.48055911,1.26520491,9.26620579,0.04581489,0.07452556,0.01771509,27.36042214,-10.34054422,48.64805794
51470570,1.89870477,0.99361956,9.98883820,0.04459316,0.04092797,0.01099557,26.81964445,-10.23823500,48.03420067
51523570,2.21874475,1.47278237,8.59860802,-0.04703662,0.08674286,-0.22357668,26.92195368,-9.93130684,47.77112388
51576570,2.41974187,-0.31704900,9.99482059,0.05619960,0.26145032,-0.09407324,26.70271969,-10.22361946,48.01958656
51629570,3.47258401,1.63609254,9.20279598,0.54733527,-0.49113566,0.01771509,27.06810999,-9.85822916,48.23882103
51682570,3.85663176,0.51565325,8.37368298,-0.06230826,0.39645153,0.11301007,27.44811583,-8.89359856,48.44343757
51735570,3.78185630,2.15533495,10.37288570,-0.29810223,0.97249746,0.04276057,26.58579493,-9.98976946,49.43729973
51788570,3.74237442,0.22851455,7.55533743,0.23701571,-0.14049901,0.60170227,26.54194784,-9.90207577,49.32037163
51841570,2.94735932,0.43190449,14.65245056,-0.61514127,0.51618117,0.46364671,25.82578326,-11.99210835,48.29728126
51894570,4.14018106,-0.33798620,4.62652302,0.28955010,-0.69211030,0.46120325,27.52119375,-10.82285976,46.93802833
51947570,2.31266308,-0.86081791,13.76590919,-0.46609017,-0.01588250,0.47464228,26.04501725,-12.41596079,46.30955696
52000570,1.34297180,1.32203448,5.02672195,0.80695301,-0.70066243,-0.31520644,28.12043381,-11.07132435,44.81876945
52053570,-0.98345011,-0.16450654,15.91586018,0.28221974,0.37446040,-0.21380283,26.80502892,-9.34668255,45.25723839
52106570,-1.57447731,1.88793719,5.87258530,-0.12583824,-0.17104226,-0.34452799,28.83659864,-7.70973468,44.45337868
52159570,-4.07318258,-0.00059821,9.22193813,0.31887165,-0.21135938,-0.24678954,28.55890203,-7.09587884,44.65799522
52212570,-4.47816753,5.36650276,8.14516830,1.04091430,0.15760322,-1.06229472,28.90967655,-4.69891898,44.51183891
52265570,-3.12263370,3.51206541,12.89791298,-0.34941491,0.36224309,0.02504547,27.55042482,-4.20198825,45.73955345
52318570,-2.08355021,1.36630177,11.06441212,-0.45448375,0.36285394,0.24434610,27.55042482,-5.12277162,45.06723594
52371570,-0.86500537,-0.40019962,9.32423115,0.09712757,-0.03481932,0.37690383,27.21426583,-5.80970526,45.63723945
52424570,-0.47736815,0.68554366,10.29691410,-0.15332718,0.02626720,0.25961775,26.84887553,-6.16047990,45.25723839
52477570,0.35353953,-0.53659046,10.74018478,-0.33964109,0.28160888,0.03359759,26.62964154,-6.62817955,45.08185005
52530570,0.78006017,0.64486575,9.52881813,0.27061331,-0.08674286,-0.06902777,26.52733231,-6.23355806,45.46185493
52583570,0.84825563,1.14616203,10.51107216,-0.08307768,0.09834930,-0.00488692,26.29348231,-6.43817651,45.37415886
52636570,0.88175511,1.53200471,9.97986507,-0.08368853,0.07330383,-0.07330383,26.58579493,-6.17509556,45.38878059
52689570,1.09950209,1.21555400,9.64008427,-0.07208210,0.06414085,-0.04825835,25.91347695,-6.56971693,45.84185600
52742570,0.93798649,1.23768747,10.03430176,0.01527163,-0.09529497,-0.02565634,26.54194784,-6.29202044,45.31569862
52795570,0.80458659,1.40638149,9.64367294,-0.02809980,0.12644911,0.03298672,26.19117356,-6.07278621,46.10494041
52848570,0.78664052,1.46440744,10.28734303,0.04031710,-0.11484267,0.02076942,26.76118183,-6.65741062,46.03186607
52901570,0.97447705,1.00917292,9.79442120,-0.01954769,0.02748894,0.04031710,26.71733523,-6.45279205,45.63723945
52954570,0.90209413,0.77168530,10.36271667,-0.05681047,0.03909538,0.10873401,26.61502600,-6.55510139,46.16340065
53007570,0.71066833,1.26999068,9.28774166,-0.00794125,0.01099557,0.00122173,26.84887553,-6.58433270,46.16340065
53060570,0.87158561,1.07258272,9.83210850,0.02199115,0.02871067,0.05681047,26.73195124,-6.75971985,46.11955452
53113570,0.74596244,1.03130651,9.97747231,-0.05436701,-0.04764749,0.00488692,26.51271677,-6.78895116,45.35954475
53166570,0.73040915,1.06839526,9.68195915,0.05131268,-0.01160644,0.01404990,26.86349154,-6.84741354,45.84185600
53219570,0.84825563,0.83688974,10.21017456,-0.04642576,0.04459316,-0.04092797,26.61502600,-6.74510431,46.01725197
53272570,0.71126652,1.53978145,9.28235722,0.00488692,-0.05436701,-0.05986479,26.70271969,-6.99356961,45.27185249
53325570,0.97986084,0.49591249,10.24905777,-0.04703662,0.12339477,0.04214970,26.61502600,-6.48202324,46.42648506
53378570,0.78424764,1.29332066,9.53719330,-0.03237586,0.00733038,-0.02138028,26.68810416,-6.40894520,46.45571327
53431570,0.89132643,1.20059872,9.78903770,0.00610865,0.06108652,0.00733038,26.38117600,-6.36509836,46.25109672
53484570,0.84227353,1.07736838,10.13599586,-0.01527163,0.00733038,-0.02565634,26.58579493,-6.54048586,45.91493797
53537570,0.87637126,1.12343013,9.85603619,-0.03787364,0.02504547,0.02871067,26.33732939,-6.48202324,45.85647392
53590570,0.64845496,1.26341045,9.99541855,0.01221730,-0.00488692,-0.03237586,27.14118791,-6.67202616,45.53492927
53643570,0.75433737,1.39501560,9.29910755,-0.00671952,0.07147123,0.04703662,26.84887553,-6.54048586,46.29494285
53696570,0.75074810,1.06600261,10.05284595,0.07269296,-0.06352998,-0.01466077,26.77579785,-6.55510139,45.59339714
53749570,0.68075806,1.29511523,10.26162052,-0.07024951,0.08735373,-0.01954769,26.20578862,-6.62817955,45.71032142
53802570,0.73938221,1.05164552,9.42532921,0.04031710,-0.04398230,0.00000000,26.29348231,-6.29202044,45.76878166
53855570,0.73340017,1.00378907,10.02114201,0.00977384,0.02871067,0.01282817,26.05963278,-6.27740490,46.35340690
53908570,0.72502530,1.07497561,9.93679428,0.00671952,0.03420845,0.01588250,26.17655754,-6.33586717,46.61648750
53961570,0.78245300,0.93858469,10.10189915,-0.00061087,0.03909538,0.00183260,26.11809492,-6.94972301,45.94417000
54014570,0.75613201,1.02951193,9.74058342,0.03909538,0.03359759,0.02687807,26.36656094,-6.33586717,46.29494285
54067570,0.61016983,1.40817606,9.70468998,-0.01893682,0.00855211,-0.00427606,26.23502016,-6.49663901,45.62262535
54120570,0.76331043,1.01635146,9.76750183,0.01649336,-0.03176499,-0.04825835,26.51271677,-6.67202616,46.03186607
54173570,0.71126652,1.23708940,9.83031368,0.00610865,0.01893682,0.00427606,26.14732647,-6.65741062,45.60801124
54226570,0.82253277,0.97986084,9.82792091,0.01160644,-0.00855211,-0.00366519,26.80502892,-6.84741354,45.84185600
54279570,0.76689970,1.31784701,9.57069206,-0.05803220,0.03665191,-0.01221730,26.20578862,-6.40894520,46.20725059
54332570,0.79441720,1.05523491,10.05643559,-0.00183260,-0.01282817,-0.05497787,26.48348522,-6.86202931,45.98801613
54385570,0.79980099,1.27956188,9.51087189,-0.01343904,0.04886922,0.01221730,26.48348522,-6.59894824,45.69569969
54438570,0.66520470,1.14616203,10.04746246,0.03970624,0.02748894,-0.03848451,26.05963278,-6.96433830,46.00263023
54491570,0.69571322,1.36331069,9.71545792,0.00610865,0.04886922,0.00366519,26.73195124,-6.55510139,46.61648750
54544570,0.90388876,1.07796669,9.76152039,0.02993240,0.03420845,0.04764749,26.46887017,-6.81818247,45.41800880
54597570,0.69391859,1.07078826,9.95354366,0.01282817,-0.01221730,0.05131268,26.29348231,-6.65741062,46.07571220
54650570,0.64127642,1.22871435,9.62752247,-0.02015855,0.02443461,-0.02443461,26.36656094,-6.90587616,45.30108070
54703570,0.57906312,1.46500576,9.85125065,-0.02321288,-0.01160644,-0.07452556,26.30809832,-7.13972569,46.55802345
54756570,0.71545398,1.02891374,9.93978500,-0.01893682,0.00977384,-0.04337143,26.33732939,-6.81818247,45.35954475
54809570,0.76331043,1.21854496,10.20957661,0.03420845,0.01221730,-0.00183260,26.08886433,-6.55510139,45.43262291
54862570,0.75194454,0.83509511,10.26341534,-0.06902777,0.06536258,-0.01221730,26.48348522,-6.43817651,45.24262428
54915570,0.62153572,1.31425786,9.87158966,-0.03176499,0.02443461,-0.03420845,26.57117892,-6.45279205,45.72493553
54968570,0.65742803,1.16709924,9.89850903,-0.01221730,0.01893682,-0.02748894,25.97193909,-6.49663901,45.65185737
55021570,0.70468628,1.29990101,9.69392300,-0.00183260,0.02932153,-0.01221730,26.00117064,-6.74510431,45.31569862
55074570,0.85064852,0.96550399,9.78604603,0.02932153,0.02993240,0.01160644,26.08886433,-6.80356669,44.97953987
55127570,0.77168530,1.15334058,9.74776077,0.02871067,0.00488692,-0.02626720,25.85501433,-6.20432675,45.03800011
55180570,0.69332033,1.55234361,9.59641457,-0.00549779,-0.00183260,-0.01343904,26.46887017,-6.62817955,45.43262291
55233570,0.66699934,1.38245332,10.02831936,-0.00183260,0.00000000,-0.03543018,26.81964445,-6.58433270,45.31569862
55286570,0.76869428,1.10129666,9.77527905,-0.00122173,0.03970624,-0.00855211,26.48348522,-6.37971401,45.65185737
55339570,0.83150584,1.18444717,9.70827961,0.05619960,-0.02015855,0.01099557,26.39579201,-6.32125151,46.22186851
55392570,0.70468628,1.08514500,9.70050335,0.04581489,0.03237586,0.05253441,26.68810416,-6.73048854,45.31569862
55445570,0.51026946,1.12043917,9.75075150,-0.00366519,0.01038471,-0.01221730,26.29348231,-6.43817651,46.01725197
55498570,0.50069815,1.15932262,9.41575718,0.01771509,0.01893682,0.02015855,26.62964154,-6.45279205,46.60186958
55551570,0.64845496,1.06540430,10.08813953,-0.01710423,-0.00427606,-0.03176499,25.94270802,-6.58433270,46.23648262
55604570,0.77647096,1.14975131,9.68195915,0.01038471,0.07941248,-0.01710423,25.78193617,-6.42356086,46.54340935
55657570,0.79022968,0.92901343,10.11087227,-0.01160644,0.05681047,0.02382374,25.89886093,-6.62817955,45.95878410
55710570,0.85663050,1.41894388,9.75733280,-0.00488692,0.06230826,-0.02260201,26.13271094,-6.29202044,45.50570106
55763570,0.77108711,1.58404863,9.79621601,-0.00916298,0.03237586,-0.01038471,26.45425415,-6.65741062,45.98801613
55816570,0.85782689,1.38125682,9.98225784,-0.00122173,0.00794125,-0.00244346,26.22040463,-6.55510139,46.30955696
55869570,0.74117684,1.34835553,9.95593739,-0.00305433,0.01466077,0.01099557,26.03040171,-6.30663598,45.54955101
55922570,0.79740822,1.41475630,9.71007442,0.01771509,0.03359759,-0.02321288,26.64425755,-6.56971693,45.28646660
55975570,0.69152576,1.41595292,10.05643559,-0.00916298,0.02993240,0.03848451,25.94270802,-6.40894520,46.16340065
56028570,0.69810599,1.07736838,9.91765213,-0.02138028,0.04214970,0.02138028,26.16194201,-6.30663598,45.21338463
56081570,0.70648092,1.31665063,9.42891788,0.01527163,0.03665191,-0.03054326,26.04501725,-6.40894520,45.76878166
56134570,0.47676992,1.22811615,9.94217777,0.03726278,0.01771509,0.06169739,26.35194493,-6.75971985,45.73955345
56187570,-0.28295130,1.43449724,10.36869812,0.00305433,0.04886922,0.02626720,26.54194784,-6.92049170,45.84185600
56240570,-2.66620278,3.44566488,11.52682495,-0.18875736,-0.30482176,0.03787364,26.80502892,-7.63665628,45.92955208
56293570,-3.70887518,1.30528474,6.96670294,-0.17654005,-0.04764749,0.99937552,27.09734082,-8.14820290,45.57877922
56346570,-5.38145781,0.51086766,11.77567863,-0.92790431,-0.00427606,0.62063909,26.35194493,-11.59748650,45.21338463
56399570,-5.33539629,0.56231332,5.23429918,0.28771752,-0.64385194,1.12704635,27.08272553,-12.62057972,43.35721016
56452570,-3.73220539,0.67058855,9.41575718,-0.02687807,0.38423422,0.45692718,26.74656630,-14.19906521,44.01490974
56505570,-0.21834506,-1.09352005,8.19481945,-0.10262536,0.45692718,-0.14049901,25.79655171,-14.35983753,44.77492332
56558570,2.82113791,0.10408779,7.96271563,0.99143428,-0.22113320,-0.37201694,25.79655171,-13.87752152,45.95878410
56611570,3.32901430,-0.05503492,15.72204113,-0.58826327,0.83993971,-1.02319932,24.52499390,-14.14060211,47.49342537
56664570,2.74935317,0.18963119,9.59043312,0.55344391,0.26878071,-0.74525559,24.84653712,-11.78748941,48.69190025
56717570,2.60757852,4.23409939,7.96989393,0.21441370,0.35002577,-0.23151793,24.81730604,-11.53902435,49.94884300
56770570,2.18943286,-0.67178494,10.31306553,-0.24617870,0.04214970,-0.08857546,23.26805115,-12.98596954,50.32885170
56823570,3.42532563,0.96071833,11.90010548,0.25045475,0.06475171,-0.50335294,21.93803120,-12.62057972,50.15346718
56876570,2.86660147,3.37029076,12.82433319,-0.52412236,0.51007247,-0.25228733,21.76264382,-11.97749233,50.24115562
56929570,4.08574486,1.02113700,8.81037331,0.29993480,-0.25534168,-0.41416663,22.06957150,-10.32592869,50.03653908
56982570,2.97786760,1.22811615,9.31226730,0.30054569,-0.71471232,-0.47891834,23.22420454,-9.34668255,50.09499931
57035570,1.03908324,1.65403867,9.74477005,-0.12583824,-0.30237830,-0.12644911,23.88190699,-9.58053255,49.15960121
57088570,0.74656069,0.24885355,10.34835911,-0.06352998,-0.24556783,0.20769419,24.93423081,-9.82899809,49.21806907
57141570,0.50368917,1.23768747,8.74935627,-0.00794125,-0.09896017,0.07574729,25.57731772,-9.58053255,49.08652687
57194570,0.34097722,0.74835533,10.64207935,-0.11301007,0.05681047,-0.02932153,25.63578034,-9.97515392,48.19497108
57247570,0.66759753,1.72761798,8.79840946,0.06291912,0.06536258,0.08124508,25.70885802,-10.22361946,48.76498222
57300570,0.69092757,0.73519474,9.99482059,0.05681047,0.08613200,0.04459316,25.21192742,-9.55130148,48.79421425
57353570,0.55633122,1.21914315,10.69232750,-0.09468411,0.06108652,-0.06475171,24.86115265,-10.07746315,48.82344246
57406570,0.61076802,1.30588293,9.79023361,0.04214970,0.10018190,0.00549779,24.80269051,-9.66822624,49.18883705
57459570,0.57726848,1.03130651,9.99601650,0.01221730,0.09773844,-0.02748894,24.52499390,-9.90207577,48.92575264
57512570,0.70947194,0.60598230,10.00379372,0.03237586,0.01954769,0.02687807,24.72961235,-10.09207916,49.02806663
57565570,0.48514479,1.21435750,9.74656487,0.15027285,-0.07880161,-0.14538592,25.12423373,-9.77053547,49.56884193
57618570,0.65084779,1.77846551,10.35374355,-0.02809980,0.11362094,-0.06414085,24.77345896,-9.53668547,49.52499580
57671570,0.79322070,1.05583298,9.89432144,0.08185595,0.07086036,0.03115413,24.67114973,-8.95206118,49.83192253
57724570,0.49172506,1.35493588,9.43908691,0.02687807,-0.01893682,-0.05619960,25.03654003,-9.03975487,49.15960121
57777570,0.39182475,1.30528474,9.85484028,0.07086036,-0.00549779,0.02565634,25.32885266,-9.12744856,49.56884193
57830570,0.68554366,1.07018995,10.38425255,-0.01404990,0.07513642,-0.08674286,24.90499974,-8.76205826,50.25577354
57883570,0.73938221,1.84127700,9.42473030,0.07757989,0.00855211,-0.04520403,25.29962111,-8.67436457,49.83192253
57936570,0.64486575,1.60618222,9.59402275,0.04825835,-0.06047566,0.00610865,25.06577158,-8.86436749,49.59807014
57989570,0.52402812,1.57268274,10.12821960,-0.09468411,-0.01160644,0.01038471,25.18269635,-8.90821457,49.27652931
58042570,0.45343989,1.45663083,9.79681492,-0.03115413,-0.02199115,-0.06230826,25.13884926,-8.55743980,49.65653801
58095570,0.46061838,1.48893380,9.49890804,-0.01343904,0.00794125,0.04214970,24.93423081,-8.29435897,50.00731087
58148570,0.44925249,1.55114734,9.70947647,0.06414085,-0.00916298,-0.02504547,24.52499390,-8.73282719,50.28500175
58201570,0.64785677,1.47517502,10.12881851,-0.02809980,0.00488692,-0.07024951,24.62730313,-8.67436457,49.93422890
58254570,1.04207420,1.58464682,9.51446056,0.01343904,0.09834930,-0.02993240,24.94884634,-8.38205266,50.12423134
58307570,1.73659110,1.12163568,10.14855862,0.10384709,0.05192355,0.02382374,24.39345312,-8.20666528,49.51038170
58360570,3.11425877,1.59541440,9.50488949,0.11178834,0.05864306,0.05742133,24.84653712,-7.88512182,49.61268425
58413570,5.08175755,-1.27238345,9.43011379,0.08918633,0.10506882,-0.06841691,24.64191914,-8.13358712,50.41654396
58466570,6.34217644,0.53359944,9.70588684,-0.28955010,0.34697145,-0.71410143,25.34346772,-8.06050921,50.32885170
58519570,5.30129862,2.59621239,14.26002693,0.27183503,-0.15271631,0.05742133,25.81116724,-7.32972860,49.23268318
